Even,Ten,Odd,Negative,Correct,trials.thisRepN,trials.thisTrialN,trials.thisN,trials.thisIndex,trials_2.thisRepN,trials_2.thisTrialN,trials_2.thisN,trials_2.thisIndex,trials_3.thisRepN,trials_3.thisTrialN,trials_3.thisN,trials_3.thisIndex,trials_4.thisRepN,trials_4.thisTrialN,trials_4.thisN,trials_4.thisIndex,trials_5.thisRepN,trials_5.thisTrialN,trials_5.thisN,trials_5.thisIndex,trials_6.thisRepN,trials_6.thisTrialN,trials_6.thisN,trials_6.thisIndex,trials_7.thisRepN,trials_7.thisTrialN,trials_7.thisN,trials_7.thisIndex,trials_8.thisRepN,trials_8.thisTrialN,trials_8.thisN,trials_8.thisIndex,trials_9.thisRepN,trials_9.thisTrialN,trials_9.thisN,trials_9.thisIndex,trials_10.thisRepN,trials_10.thisTrialN,trials_10.thisN,trials_10.thisIndex,trials_11.thisRepN,trials_11.thisTrialN,trials_11.thisN,trials_11.thisIndex,trials_12.thisRepN,trials_12.thisTrialN,trials_12.thisN,trials_12.thisIndex,trials_13.thisRepN,trials_13.thisTrialN,trials_13.thisN,trials_13.thisIndex,trials_14.thisRepN,trials_14.thisTrialN,trials_14.thisN,trials_14.thisIndex,trials_15.thisRepN,trials_15.thisTrialN,trials_15.thisN,trials_15.thisIndex,trials_16.thisRepN,trials_16.thisTrialN,trials_16.thisN,trials_16.thisIndex,thisRow.t,notes,starttrain.started,key_resp.started,text.started,starttrain.stopped,key_resp.keys,key_resp.rt,key_resp.duration,Even_Train.started,text_2.started,Even_Train.stopped,starttest.started,text_4.started,key_resp_2.started,starttest.stopped,key_resp_2.keys,key_resp_2.rt,key_resp_2.duration,Even_Test.started,text_5.started,key_resp_3.started,Even_Test.stopped,key_resp_3.keys,key_resp_3.rt,key_resp_3.duration,Ten_Train.started,text_7.started,Ten_Train.stopped,text_7.stopped,Ten_Test.started,text_8.started,key_resp_4.started,Ten_Test.stopped,key_resp_4.keys,key_resp_4.rt,key_resp_4.duration,Odd_Train.started,text_3.started,Odd_Train.stopped,Odd_Test.started,text_9.started,key_resp_6.started,Odd_Test.stopped,key_resp_6.keys,key_resp_6.rt,key_resp_6.duration,Negative_Train.started,text_10.started,Negative_Train.stopped,Negative_Test.started,text_11.started,key_resp_7.started,Negative_Test.stopped,key_resp_7.keys,key_resp_7.rt,key_resp_7.duration,Even2.started,text_12.started,text_12.stopped,Even2.stopped,even2test.started,text_13.started,key_resp_8.started,even2test.stopped,key_resp_8.keys,key_resp_8.rt,key_resp_8.duration,ten2.started,text_14.started,text_14.stopped,ten2.stopped,ten2test.started,text_15.started,key_resp_9.started,ten2test.stopped,key_resp_9.keys,key_resp_9.rt,key_resp_9.duration,odd2.started,text_16.started,odd2.stopped,text_16.stopped,odd2test.started,text_17.started,key_resp_10.started,odd2test.stopped,key_resp_10.keys,key_resp_10.rt,key_resp_10.duration,neg2.started,text_18.started,neg2.stopped,text_18.stopped,neg2test.started,text_19.started,key_resp_11.started,neg2test.stopped,key_resp_11.keys,key_resp_11.rt,key_resp_11.duration,participant,session,date,expName,psychopyVersion,frameRate,expStart,
,,,,,,,,,,,,,,,,,,,,,,,,,,,,,,,,,,,,,,,,,,,,,,,,,,,,,,,,,,,,,,,,,,,,,,,0.009811915922909975,0.022238458041101694,0.022238458041101694,22.39253787510097,space,22.35396616719663,None,,,,,,,,,,,,,,,,,,,,,,,,,,,,,,,,,,,,,,,,,,,,,,,,,,,,,,,,,,,,,,,,,,,,,,,,,,,,,,,,,,,,,,,,,,,,,130892,001,2023-11-15_15h05.22.517,main,2023.2.3,None,2023-11-15 15h05.29.941152 -0500,
32,20,7,-44,,0,0,0,1,,,,,,,,,,,,,,,,,,,,,,,,,,,,,,,,,,,,,,,,,,,,,,,,,,,,,,,,,,,,,22.432905290974304,,,,,,,,,22.40812995797023,22.432905290974304,24.40641749999486,,,,,,,,,,,,,,,,,,,,,,,,,,,,,,,,,,,,,,,,,,,,,,,,,,,,,,,,,,,,,,,,,,,,,,,,,,,,,,,,,,,,,,,,,,130892,001,2023-11-15_15h05.22.517,main,2023.2.3,None,2023-11-15 15h05.29.941152 -0500,
136,220,55,-59,,0,1,1,3,,,,,,,,,,,,,,,,,,,,,,,,,,,,,,,,,,,,,,,,,,,,,,,,,,,,,,,,,,,,,24.419281166046858,,,,,,,,,24.407365791033953,24.419281166046858,26.406515666050836,,,,,,,,,,,,,,,,,,,,,,,,,,,,,,,,,,,,,,,,,,,,,,,,,,,,,,,,,,,,,,,,,,,,,,,,,,,,,,,,,,,,,,,,,,130892,001,2023-11-15_15h05.22.517,main,2023.2.3,None,2023-11-15 15h05.29.941152 -0500,
12,60,39,-845,,0,2,2,2,,,,,,,,,,,,,,,,,,,,,,,,,,,,,,,,,,,,,,,,,,,,,,,,,,,,,,,,,,,,,26.416995249921456,,,,,,,,,26.407634916016832,26.416995249921456,28.394391499925405,,,,,,,,,,,,,,,,,,,,,,,,,,,,,,,,,,,,,,,,,,,,,,,,,,,,,,,,,,,,,,,,,,,,,,,,,,,,,,,,,,,,,,,,,,130892,001,2023-11-15_15h05.22.517,main,2023.2.3,None,2023-11-15 15h05.29.941152 -0500,
2,40,95,-39,,0,3,3,0,,,,,,,,,,,,,,,,,,,,,,,,,,,,,,,,,,,,,,,,,,,,,,,,,,,,,,,,,,,,,28.40592383290641,,,,,,,,,28.39480329095386,28.40592383290641,30.392777499975637,,,,,,,,,,,,,,,,,,,,,,,,,,,,,,,,,,,,,,,,,,,,,,,,,,,,,,,,,,,,,,,,,,,,,,,,,,,,,,,,,,,,,,,,,,130892,001,2023-11-15_15h05.22.517,main,2023.2.3,None,2023-11-15 15h05.29.941152 -0500,
,,,,,,,,,,,,,,,,,,,,,,,,,,,,,,,,,,,,,,,,,,,,,,,,,,,,,,,,,,,,,,,,,,,,,,,,,,,,,,,,,30.39285891596228,30.40596045809798,30.40596045809798,40.70608279109001,space,10.290131750050932,None,,,,,,,,,,,,,,,,,,,,,,,,,,,,,,,,,,,,,,,,,,,,,,,,,,,,,,,,,,,,,,,,,,,,,,,,,,,,,,,,,,,130892,001,2023-11-15_15h05.22.517,main,2023.2.3,None,2023-11-15 15h05.29.941152 -0500,
"41, 187, 53","272,295,67","6, 168, 34","64, 21, 165",0,,,,,0,0,0,0,,,,,,,,,,,,,,,,,,,,,,,,,,,,,,,,,,,,,,,,,,,,,,,,,,,,,,,,,40.74024674994871,,,,,,,,,,,,,,,,,,,40.71478645806201,40.74024674994871,40.74024674994871,43.722828708123416,left,2.9817263749428093,None,,,,,,,,,,,,,,,,,,,,,,,,,,,,,,,,,,,,,,,,,,,,,,,,,,,,,,,,,,,,,,,,,,,,,,,,,,,,130892,001,2023-11-15_15h05.22.517,main,2023.2.3,None,2023-11-15 15h05.29.941152 -0500,
"313, 9, 33","21, 204, 155","2, 142, 48","264, 198, 211",0,,,,,0,1,1,4,,,,,,,,,,,,,,,,,,,,,,,,,,,,,,,,,,,,,,,,,,,,,,,,,,,,,,,,,43.75795616605319,,,,,,,,,,,,,,,,,,,43.7238839159254,43.75795616605319,43.75795616605319,47.625745499972254,left,3.8546818329486996,None,,,,,,,,,,,,,,,,,,,,,,,,,,,,,,,,,,,,,,,,,,,,,,,,,,,,,,,,,,,,,,,,,,,,,,,,,,,,130892,001,2023-11-15_15h05.22.517,main,2023.2.3,None,2023-11-15 15h05.29.941152 -0500,
"122, 40, 18","270, 290, 60","465, 323, 97","-84, -100, -244",1,,,,,0,2,2,1,,,,,,,,,,,,,,,,,,,,,,,,,,,,,,,,,,,,,,,,,,,,,,,,,,,,,,,,,47.63850075006485,,,,,,,,,,,,,,,,,,,47.62629204103723,47.63850075006485,47.63850075006485,48.95670770807192,right,1.3113492080010474,None,,,,,,,,,,,,,,,,,,,,,,,,,,,,,,,,,,,,,,,,,,,,,,,,,,,,,,,,,,,,,,,,,,,,,,,,,,,,130892,001,2023-11-15_15h05.22.517,main,2023.2.3,None,2023-11-15 15h05.29.941152 -0500,
"112, 216, 128","800, 900, 550","253, 173, 257","-65, -51, -27",1,,,,,0,3,3,3,,,,,,,,,,,,,,,,,,,,,,,,,,,,,,,,,,,,,,,,,,,,,,,,,,,,,,,,,48.971617040922865,,,,,,,,,,,,,,,,,,,48.95811512507498,48.971617040922865,48.971617040922865,50.5257640411146,right,1.5427742081228644,None,,,,,,,,,,,,,,,,,,,,,,,,,,,,,,,,,,,,,,,,,,,,,,,,,,,,,,,,,,,,,,,,,,,,,,,,,,,,130892,001,2023-11-15_15h05.22.517,main,2023.2.3,None,2023-11-15 15h05.29.941152 -0500,
"10, 70, 56","20, 200, 160","97, 93, 3","-174, -9, -92",1,,,,,0,4,4,2,,,,,,,,,,,,,,,,,,,,,,,,,,,,,,,,,,,,,,,,,,,,,,,,,,,,,,,,,50.539129958022386,,,,,,,,,,,,,,,,,,,50.5264434160199,50.539129958022386,50.539129958022386,52.27625029091723,right,1.7349855839274824,None,,,,,,,,,,,,,,,,,,,,,,,,,,,,,,,,,,,,,,,,,,,,,,,,,,,,,,,,,,,,,,,,,,,,,,,,,,,,130892,001,2023-11-15_15h05.22.517,main,2023.2.3,None,2023-11-15 15h05.29.941152 -0500,
"91, 299, 31","282, 401, 66","134, 72, 188","136, 169, 0",0,,,,,0,5,5,5,,,,,,,,,,,,,,,,,,,,,,,,,,,,,,,,,,,,,,,,,,,,,,,,,,,,,,,,,52.28840704099275,,,,,,,,,,,,,,,,,,,52.27683233306743,52.28840704099275,52.28840704099275,53.6746942079626,left,1.3735552919097245,None,,,,,,,,,,,,,,,,,,,,,,,,,,,,,,,,,,,,,,,,,,,,,,,,,,,,,,,,,,,,,,,,,,,,,,,,,,,,130892,001,2023-11-15_15h05.22.517,main,2023.2.3,None,2023-11-15 15h05.29.941152 -0500,
,,,,,,,,,,,,,,,,,,,,,,,,,,,,,,,,,,,,,,,,,,,,,,,,,,,,,,,,,,,,,,,,,,,,,,,53.67516295798123,53.68925562500954,53.68925562500954,56.39205366605893,space,2.6879939169157296,None,,,,,,,,,,,,,,,,,,,,,,,,,,,,,,,,,,,,,,,,,,,,,,,,,,,,,,,,,,,,,,,,,,,,,,,,,,,,,,,,,,,,,,,,,,,,,130892,001,2023-11-15_15h05.22.517,main,2023.2.3,None,2023-11-15 15h05.29.941152 -0500,
2,40,95,-39,,,,,,,,,,0,0,0,0,,,,,,,,,,,,,,,,,,,,,,,,,,,,,,,,,,,,,,,,,,,,,,,,,,,,,56.409133916022256,,,,,,,,,,,,,,,,,,,,,,,,,,56.39763179095462,56.409133916022256,58.395749625051394,,,,,,,,,,,,,,,,,,,,,,,,,,,,,,,,,,,,,,,,,,,,,,,,,,,,,,,,,,,,,,,,,,,,,,,,,130892,001,2023-11-15_15h05.22.517,main,2023.2.3,None,2023-11-15 15h05.29.941152 -0500,
136,220,55,-59,,,,,,,,,,0,1,1,3,,,,,,,,,,,,,,,,,,,,,,,,,,,,,,,,,,,,,,,,,,,,,,,,,,,,,58.40512929111719,,,,,,,,,,,,,,,,,,,,,,,,,,58.3961842500139,58.40512929111719,60.39218350010924,,,,,,,,,,,,,,,,,,,,,,,,,,,,,,,,,,,,,,,,,,,,,,,,,,,,,,,,,,,,,,,,,,,,,,,,,130892,001,2023-11-15_15h05.22.517,main,2023.2.3,None,2023-11-15 15h05.29.941152 -0500,
32,20,7,-44,,,,,,,,,,0,2,2,1,,,,,,,,,,,,,,,,,,,,,,,,,,,,,,,,,,,,,,,,,,,,,,,,,,,,,60.40575912501663,,,,,,,,,,,,,,,,,,,,,,,,,,60.392423749901354,60.40575912501663,62.39095558295958,62.39781758305617,,,,,,,,,,,,,,,,,,,,,,,,,,,,,,,,,,,,,,,,,,,,,,,,,,,,,,,,,,,,,,,,,,,,,,,,130892,001,2023-11-15_15h05.22.517,main,2023.2.3,None,2023-11-15 15h05.29.941152 -0500,
12,60,39,-845,,,,,,,,,,0,3,3,2,,,,,,,,,,,,,,,,,,,,,,,,,,,,,,,,,,,,,,,,,,,,,,,,,,,,,62.39781758305617,,,,,,,,,,,,,,,,,,,,,,,,,,62.3912583750207,62.39781758305617,64.38927474990487,64.39290387509391,,,,,,,,,,,,,,,,,,,,,,,,,,,,,,,,,,,,,,,,,,,,,,,,,,,,,,,,,,,,,,,,,,,,,,,,130892,001,2023-11-15_15h05.22.517,main,2023.2.3,None,2023-11-15 15h05.29.941152 -0500,
,,,,,,,,,,,,,,,,,,,,,,,,,,,,,,,,,,,,,,,,,,,,,,,,,,,,,,,,,,,,,,,,,,,,,,,,,,,,,,,,,64.3893545831088,64.39290387509391,64.39290387509391,72.79144187504426,space,8.389146958012134,None,,,,,,,,,,,,,,,,,,,,,,,,,,,,,,,,,,,,,,,,,,,,,,,,,,,,,,,,,,,,,,,,,,,,,,,,,,,,,,,,,,,130892,001,2023-11-15_15h05.22.517,main,2023.2.3,None,2023-11-15 15h05.29.941152 -0500,
"122, 40, 18","270, 290, 60","465, 323, 97","-84, -100, -244",1,,,,,,,,,,,,,0,0,0,1,,,,,,,,,,,,,,,,,,,,,,,,,,,,,,,,,,,,,,,,,,,,,,,,,72.8086928750854,,,,,,,,,,,,,,,,,,,,,,,,,,,,,,72.79805591609329,72.8086928750854,72.8086928750854,74.1059232079424,right,1.2858253340236843,None,,,,,,,,,,,,,,,,,,,,,,,,,,,,,,,,,,,,,,,,,,,,,,,,,,,,,,,,,,,,,,,,,130892,001,2023-11-15_15h05.22.517,main,2023.2.3,None,2023-11-15 15h05.29.941152 -0500,
"313, 9, 33","21, 204, 155","2, 142, 48","264, 198, 211",0,,,,,,,,,,,,,0,1,1,4,,,,,,,,,,,,,,,,,,,,,,,,,,,,,,,,,,,,,,,,,,,,,,,,,74.1158302910626,,,,,,,,,,,,,,,,,,,,,,,,,,,,,,74.10665533295833,74.1158302910626,74.1158302910626,74.88946941611357,left,0.7690269169397652,None,,,,,,,,,,,,,,,,,,,,,,,,,,,,,,,,,,,,,,,,,,,,,,,,,,,,,,,,,,,,,,,,,130892,001,2023-11-15_15h05.22.517,main,2023.2.3,None,2023-11-15 15h05.29.941152 -0500,
"10, 70, 56","20, 200, 160","97, 93, 3","-174, -9, -92",1,,,,,,,,,,,,,0,2,2,2,,,,,,,,,,,,,,,,,,,,,,,,,,,,,,,,,,,,,,,,,,,,,,,,,74.9008506659884,,,,,,,,,,,,,,,,,,,,,,,,,,,,,,74.89010587497614,74.9008506659884,74.9008506659884,75.64255391596816,right,0.7270241670776159,None,,,,,,,,,,,,,,,,,,,,,,,,,,,,,,,,,,,,,,,,,,,,,,,,,,,,,,,,,,,,,,,,,130892,001,2023-11-15_15h05.22.517,main,2023.2.3,None,2023-11-15 15h05.29.941152 -0500,
"91, 299, 31","282, 401, 66","134, 72, 188","136, 169, 0",0,,,,,,,,,,,,,0,3,3,5,,,,,,,,,,,,,,,,,,,,,,,,,,,,,,,,,,,,,,,,,,,,,,,,,75.65495825000107,,,,,,,,,,,,,,,,,,,,,,,,,,,,,,75.64329195790924,75.65495825000107,75.65495825000107,76.62574070808478,left,0.9554445839021355,None,,,,,,,,,,,,,,,,,,,,,,,,,,,,,,,,,,,,,,,,,,,,,,,,,,,,,,,,,,,,,,,,,130892,001,2023-11-15_15h05.22.517,main,2023.2.3,None,2023-11-15 15h05.29.941152 -0500,
"112, 216, 128","800, 900, 550","253, 173, 257","-65, -51, -27",1,,,,,,,,,,,,,0,4,4,3,,,,,,,,,,,,,,,,,,,,,,,,,,,,,,,,,,,,,,,,,,,,,,,,,76.63882904103957,,,,,,,,,,,,,,,,,,,,,,,,,,,,,,76.62631637509912,76.63882904103957,76.63882904103957,77.32550454093143,right,0.6733724582009017,None,,,,,,,,,,,,,,,,,,,,,,,,,,,,,,,,,,,,,,,,,,,,,,,,,,,,,,,,,,,,,,,,,130892,001,2023-11-15_15h05.22.517,main,2023.2.3,None,2023-11-15 15h05.29.941152 -0500,
"41, 187, 53","272,295,67","6, 168, 34","64, 21, 165",0,,,,,,,,,,,,,0,5,5,0,,,,,,,,,,,,,,,,,,,,,,,,,,,,,,,,,,,,,,,,,,,,,,,,,77.33905045804568,,,,,,,,,,,,,,,,,,,,,,,,,,,,,,77.32594512496144,77.33905045804568,77.33905045804568,78.17556387512013,left,0.8291162080131471,None,,,,,,,,,,,,,,,,,,,,,,,,,,,,,,,,,,,,,,,,,,,,,,,,,,,,,,,,,,,,,,,,,130892,001,2023-11-15_15h05.22.517,main,2023.2.3,None,2023-11-15 15h05.29.941152 -0500,
,,,,,,,,,,,,,,,,,,,,,,,,,,,,,,,,,,,,,,,,,,,,,,,,,,,,,,,,,,,,,,,,,,,,,,,78.17587325000204,78.18914445792325,78.18914445792325,82.40796533296816,space,4.20673366705887,None,,,,,,,,,,,,,,,,,,,,,,,,,,,,,,,,,,,,,,,,,,,,,,,,,,,,,,,,,,,,,,,,,,,,,,,,,,,,,,,,,,,,,,,,,,,,,130892,001,2023-11-15_15h05.22.517,main,2023.2.3,None,2023-11-15 15h05.29.941152 -0500,
32,20,7,-44,,,,,,,,,,,,,,,,,,0,0,0,1,,,,,,,,,,,,,,,,,,,,,,,,,,,,,,,,,,,,,,,,,,,,,82.42511650011875,,,,,,,,,,,,,,,,,,,,,,,,,,,,,,,,,,,,,82.4134029999841,82.42511650011875,84.42378233303316,,,,,,,,,,,,,,,,,,,,,,,,,,,,,,,,,,,,,,,,,,,,,,,,,,,,,,,,,,,,,,130892,001,2023-11-15_15h05.22.517,main,2023.2.3,None,2023-11-15 15h05.29.941152 -0500,
2,40,95,-39,,,,,,,,,,,,,,,,,,0,1,1,0,,,,,,,,,,,,,,,,,,,,,,,,,,,,,,,,,,,,,,,,,,,,,84.43907066597603,,,,,,,,,,,,,,,,,,,,,,,,,,,,,,,,,,,,,84.4246959160082,84.43907066597603,86.40915862494148,,,,,,,,,,,,,,,,,,,,,,,,,,,,,,,,,,,,,,,,,,,,,,,,,,,,,,,,,,,,,,130892,001,2023-11-15_15h05.22.517,main,2023.2.3,None,2023-11-15 15h05.29.941152 -0500,
136,220,55,-59,,,,,,,,,,,,,,,,,,0,2,2,3,,,,,,,,,,,,,,,,,,,,,,,,,,,,,,,,,,,,,,,,,,,,,86.42418416612782,,,,,,,,,,,,,,,,,,,,,,,,,,,,,,,,,,,,,86.40952520794235,86.42418416612782,88.40910524991341,,,,,,,,,,,,,,,,,,,,,,,,,,,,,,,,,,,,,,,,,,,,,,,,,,,,,,,,,,,,,,130892,001,2023-11-15_15h05.22.517,main,2023.2.3,None,2023-11-15 15h05.29.941152 -0500,
12,60,39,-845,,,,,,,,,,,,,,,,,,0,3,3,2,,,,,,,,,,,,,,,,,,,,,,,,,,,,,,,,,,,,,,,,,,,,,88.42433300008997,,,,,,,,,,,,,,,,,,,,,,,,,,,,,,,,,,,,,88.40952449990436,88.42433300008997,90.40936595806852,,,,,,,,,,,,,,,,,,,,,,,,,,,,,,,,,,,,,,,,,,,,,,,,,,,,,,,,,,,,,,130892,001,2023-11-15_15h05.22.517,main,2023.2.3,None,2023-11-15 15h05.29.941152 -0500,
,,,,,,,,,,,,,,,,,,,,,,,,,,,,,,,,,,,,,,,,,,,,,,,,,,,,,,,,,,,,,,,,,,,,,,,,,,,,,,,,,90.40954766608775,90.42229304090142,90.42229304090142,111.0082342911046,space,20.584961001062766,None,,,,,,,,,,,,,,,,,,,,,,,,,,,,,,,,,,,,,,,,,,,,,,,,,,,,,,,,,,,,,,,,,,,,,,,,,,,,,,,,,,,130892,001,2023-11-15_15h05.22.517,main,2023.2.3,None,2023-11-15 15h05.29.941152 -0500,
"41, 187, 53","272,295,67","6, 168, 34","64, 21, 165",0,,,,,,,,,,,,,,,,,,,,,0,0,0,0,,,,,,,,,,,,,,,,,,,,,,,,,,,,,,,,,,,,,,,,,111.02528225001879,,,,,,,,,,,,,,,,,,,,,,,,,,,,,,,,,,,,,,,,111.01357620791532,111.02528225001879,111.02528225001879,112.33825912512839,left,1.3100239590276033,None,,,,,,,,,,,,,,,,,,,,,,,,,,,,,,,,,,,,,,,,,,,,,,,,,,,,,,,130892,001,2023-11-15_15h05.22.517,main,2023.2.3,None,2023-11-15 15h05.29.941152 -0500,
"112, 216, 128","800, 900, 550","253, 173, 257","-65, -51, -27",1,,,,,,,,,,,,,,,,,,,,,0,1,1,3,,,,,,,,,,,,,,,,,,,,,,,,,,,,,,,,,,,,,,,,,112.34331808309071,,,,,,,,,,,,,,,,,,,,,,,,,,,,,,,,,,,,,,,,112.33881270792335,112.34331808309071,112.34331808309071,116.37733349995688,right,4.0229482089634985,None,,,,,,,,,,,,,,,,,,,,,,,,,,,,,,,,,,,,,,,,,,,,,,,,,,,,,,,130892,001,2023-11-15_15h05.22.517,main,2023.2.3,None,2023-11-15 15h05.29.941152 -0500,
"91, 299, 31","282, 401, 66","134, 72, 188","136, 169, 0",0,,,,,,,,,,,,,,,,,,,,,0,2,2,5,,,,,,,,,,,,,,,,,,,,,,,,,,,,,,,,,,,,,,,,,116.40575058292598,,,,,,,,,,,,,,,,,,,,,,,,,,,,,,,,,,,,,,,,116.37847724999301,116.40575058292598,116.40575058292598,117.82726395805366,left,1.420163125032559,None,,,,,,,,,,,,,,,,,,,,,,,,,,,,,,,,,,,,,,,,,,,,,,,,,,,,,,,130892,001,2023-11-15_15h05.22.517,main,2023.2.3,None,2023-11-15 15h05.29.941152 -0500,
"122, 40, 18","270, 290, 60","465, 323, 97","-84, -100, -244",1,,,,,,,,,,,,,,,,,,,,,0,3,3,1,,,,,,,,,,,,,,,,,,,,,,,,,,,,,,,,,,,,,,,,,117.8384365409147,,,,,,,,,,,,,,,,,,,,,,,,,,,,,,,,,,,,,,,,117.82841391605325,117.8384365409147,117.8384365409147,119.94137487490661,right,2.0916332500055432,None,,,,,,,,,,,,,,,,,,,,,,,,,,,,,,,,,,,,,,,,,,,,,,,,,,,,,,,130892,001,2023-11-15_15h05.22.517,main,2023.2.3,None,2023-11-15 15h05.29.941152 -0500,
"313, 9, 33","21, 204, 155","2, 142, 48","264, 198, 211",0,,,,,,,,,,,,,,,,,,,,,0,4,4,4,,,,,,,,,,,,,,,,,,,,,,,,,,,,,,,,,,,,,,,,,119.95548829110339,,,,,,,,,,,,,,,,,,,,,,,,,,,,,,,,,,,,,,,,119.94205883308314,119.95548829110339,119.95548829110339,120.83923066593707,left,0.8760575831402093,None,,,,,,,,,,,,,,,,,,,,,,,,,,,,,,,,,,,,,,,,,,,,,,,,,,,,,,,130892,001,2023-11-15_15h05.22.517,main,2023.2.3,None,2023-11-15 15h05.29.941152 -0500,
"10, 70, 56","20, 200, 160","97, 93, 3","-174, -9, -92",1,,,,,,,,,,,,,,,,,,,,,0,5,5,2,,,,,,,,,,,,,,,,,,,,,,,,,,,,,,,,,,,,,,,,,120.85022262507118,,,,,,,,,,,,,,,,,,,,,,,,,,,,,,,,,,,,,,,,120.83993979101069,120.85022262507118,120.85022262507118,125.65661758300848,right,4.79951245803386,None,,,,,,,,,,,,,,,,,,,,,,,,,,,,,,,,,,,,,,,,,,,,,,,,,,,,,,,130892,001,2023-11-15_15h05.22.517,main,2023.2.3,None,2023-11-15 15h05.29.941152 -0500,
,,,,,,,,,,,,,,,,,,,,,,,,,,,,,,,,,,,,,,,,,,,,,,,,,,,,,,,,,,,,,,,,,,,,,,,125.65782424993813,125.66607741592452,125.66607741592452,126.84481187490746,space,1.1729108339641243,None,,,,,,,,,,,,,,,,,,,,,,,,,,,,,,,,,,,,,,,,,,,,,,,,,,,,,,,,,,,,,,,,,,,,,,,,,,,,,,,,,,,,,,,,,,,,,130892,001,2023-11-15_15h05.22.517,main,2023.2.3,None,2023-11-15 15h05.29.941152 -0500,
136,220,55,-59,,,,,,,,,,,,,,,,,,,,,,,,,,0,0,0,3,,,,,,,,,,,,,,,,,,,,,,,,,,,,,,,,,,,,,126.86495600012131,,,,,,,,,,,,,,,,,,,,,,,,,,,,,,,,,,,,,,,,,,,,,,,126.85347329103388,126.86495600012131,128.85834133299068,,,,,,,,,,,,,,,,,,,,,,,,,,,,,,,,,,,,,,,,,,,,,,,,,,,,130892,001,2023-11-15_15h05.22.517,main,2023.2.3,None,2023-11-15 15h05.29.941152 -0500,
12,60,39,-845,,,,,,,,,,,,,,,,,,,,,,,,,,0,1,1,2,,,,,,,,,,,,,,,,,,,,,,,,,,,,,,,,,,,,,128.87218700000085,,,,,,,,,,,,,,,,,,,,,,,,,,,,,,,,,,,,,,,,,,,,,,,128.8591454580892,128.87218700000085,130.85560804093257,,,,,,,,,,,,,,,,,,,,,,,,,,,,,,,,,,,,,,,,,,,,,,,,,,,,130892,001,2023-11-15_15h05.22.517,main,2023.2.3,None,2023-11-15 15h05.29.941152 -0500,
2,40,95,-39,,,,,,,,,,,,,,,,,,,,,,,,,,0,2,2,0,,,,,,,,,,,,,,,,,,,,,,,,,,,,,,,,,,,,,130.86382837500423,,,,,,,,,,,,,,,,,,,,,,,,,,,,,,,,,,,,,,,,,,,,,,,130.85605729091913,130.86382837500423,132.8585934159346,,,,,,,,,,,,,,,,,,,,,,,,,,,,,,,,,,,,,,,,,,,,,,,,,,,,130892,001,2023-11-15_15h05.22.517,main,2023.2.3,None,2023-11-15 15h05.29.941152 -0500,
32,20,7,-44,,,,,,,,,,,,,,,,,,,,,,,,,,0,3,3,1,,,,,,,,,,,,,,,,,,,,,,,,,,,,,,,,,,,,,132.87219733302481,,,,,,,,,,,,,,,,,,,,,,,,,,,,,,,,,,,,,,,,,,,,,,,132.8594332500361,132.87219733302481,134.85593854100443,,,,,,,,,,,,,,,,,,,,,,,,,,,,,,,,,,,,,,,,,,,,,,,,,,,,130892,001,2023-11-15_15h05.22.517,main,2023.2.3,None,2023-11-15 15h05.29.941152 -0500,
,,,,,,,,,,,,,,,,,,,,,,,,,,,,,,,,,,,,,,,,,,,,,,,,,,,,,,,,,,,,,,,,,,,,,,,,,,,,,,,,,134.8561579999514,134.86209162510931,134.86209162510931,138.3946350410115,space,3.527142042061314,None,,,,,,,,,,,,,,,,,,,,,,,,,,,,,,,,,,,,,,,,,,,,,,,,,,,,,,,,,,,,,,,,,,,,,,,,,,,,,,,,,,,130892,001,2023-11-15_15h05.22.517,main,2023.2.3,None,2023-11-15 15h05.29.941152 -0500,
"10, 70, 56","20, 200, 160","97, 93, 3","-174, -9, -92",1,,,,,,,,,,,,,,,,,,,,,,,,,,,,,0,0,0,2,,,,,,,,,,,,,,,,,,,,,,,,,,,,,,,,,138.41364145791158,,,,,,,,,,,,,,,,,,,,,,,,,,,,,,,,,,,,,,,,,,,,,,,,,,138.40299824997783,138.41364145791158,138.41364145791158,139.23819204093888,right,0.8174300419632345,None,,,,,,,,,,,,,,,,,,,,,,,,,,,,,,,,,,,,,,,,,,,,,130892,001,2023-11-15_15h05.22.517,main,2023.2.3,None,2023-11-15 15h05.29.941152 -0500,
"112, 216, 128","800, 900, 550","253, 173, 257","-65, -51, -27",1,,,,,,,,,,,,,,,,,,,,,,,,,,,,,0,1,1,3,,,,,,,,,,,,,,,,,,,,,,,,,,,,,,,,,139.24306383309886,,,,,,,,,,,,,,,,,,,,,,,,,,,,,,,,,,,,,,,,,,,,,,,,,,139.23856891598552,139.24306383309886,139.24306383309886,139.9057058331091,right,0.6592944590374827,None,,,,,,,,,,,,,,,,,,,,,,,,,,,,,,,,,,,,,,,,,,,,,130892,001,2023-11-15_15h05.22.517,main,2023.2.3,None,2023-11-15 15h05.29.941152 -0500,
"41, 187, 53","272,295,67","6, 168, 34","64, 21, 165",0,,,,,,,,,,,,,,,,,,,,,,,,,,,,,0,2,2,0,,,,,,,,,,,,,,,,,,,,,,,,,,,,,,,,,139.9164768329356,,,,,,,,,,,,,,,,,,,,,,,,,,,,,,,,,,,,,,,,,,,,,,,,,,139.90644866600633,139.9164768329356,139.9164768329356,140.74395466595888,left,0.8223599579650909,None,,,,,,,,,,,,,,,,,,,,,,,,,,,,,,,,,,,,,,,,,,,,,130892,001,2023-11-15_15h05.22.517,main,2023.2.3,None,2023-11-15 15h05.29.941152 -0500,
"122, 40, 18","270, 290, 60","465, 323, 97","-84, -100, -244",1,,,,,,,,,,,,,,,,,,,,,,,,,,,,,0,3,3,1,,,,,,,,,,,,,,,,,,,,,,,,,,,,,,,,,140.7548867079895,,,,,,,,,,,,,,,,,,,,,,,,,,,,,,,,,,,,,,,,,,,,,,,,,,140.74433133308776,140.7548867079895,140.7548867079895,141.37227599998005,right,0.6162463338114321,None,,,,,,,,,,,,,,,,,,,,,,,,,,,,,,,,,,,,,,,,,,,,,130892,001,2023-11-15_15h05.22.517,main,2023.2.3,None,2023-11-15 15h05.29.941152 -0500,
"313, 9, 33","21, 204, 155","2, 142, 48","264, 198, 211",0,,,,,,,,,,,,,,,,,,,,,,,,,,,,,0,4,4,4,,,,,,,,,,,,,,,,,,,,,,,,,,,,,,,,,141.38072020793334,,,,,,,,,,,,,,,,,,,,,,,,,,,,,,,,,,,,,,,,,,,,,,,,,,141.37273674993776,141.38072020793334,141.38072020793334,142.17226104112342,left,0.7807908749673516,None,,,,,,,,,,,,,,,,,,,,,,,,,,,,,,,,,,,,,,,,,,,,,130892,001,2023-11-15_15h05.22.517,main,2023.2.3,None,2023-11-15 15h05.29.941152 -0500,
"91, 299, 31","282, 401, 66","134, 72, 188","136, 169, 0",0,,,,,,,,,,,,,,,,,,,,,,,,,,,,,0,5,5,5,,,,,,,,,,,,,,,,,,,,,,,,,,,,,,,,,142.18043112498708,,,,,,,,,,,,,,,,,,,,,,,,,,,,,,,,,,,,,,,,,,,,,,,,,,142.1727190411184,142.18043112498708,142.18043112498708,142.85575304110534,left,0.662597042042762,None,,,,,,,,,,,,,,,,,,,,,,,,,,,,,,,,,,,,,,,,,,,,,130892,001,2023-11-15_15h05.22.517,main,2023.2.3,None,2023-11-15 15h05.29.941152 -0500,
,,,,,,,,,,,,,,,,,,,,,,,,,,,,,,,,,,,,,,,,,,,,,,,,,,,,,,,,,,,,,,,,,,,,,,,142.85622687498108,142.8627303331159,142.8627303331159,143.96071029105224,space,1.091611125972122,None,,,,,,,,,,,,,,,,,,,,,,,,,,,,,,,,,,,,,,,,,,,,,,,,,,,,,,,,,,,,,,,,,,,,,,,,,,,,,,,,,,,,,,,,,,,,,130892,001,2023-11-15_15h05.22.517,main,2023.2.3,None,2023-11-15 15h05.29.941152 -0500,
40,30,91,-3,,,,,,,,,,,,,,,,,,,,,,,,,,,,,,,,,,0,0,0,4,,,,,,,,,,,,,,,,,,,,,,,,,,,,,143.97470620810054,,,,,,,,,,,,,,,,,,,,,,,,,,,,,,,,,,,,,,,,,,,,,,,,,,,,,,,,,143.9654350411147,143.97470620810054,145.97185875009745,145.95780270802788,,,,,,,,,,,,,,,,,,,,,,,,,,,,,,,,,,,,,,,,,130892,001,2023-11-15_15h05.22.517,main,2023.2.3,None,2023-11-15 15h05.29.941152 -0500,
98,170,77,-100,,,,,,,,,,,,,,,,,,,,,,,,,,,,,,,,,,0,1,1,3,,,,,,,,,,,,,,,,,,,,,,,,,,,,,145.97185875009745,,,,,,,,,,,,,,,,,,,,,,,,,,,,,,,,,,,,,,,,,,,,,,,,,,,,,,,,,145.95804116595536,145.97185875009745,147.96358270803466,147.95556154102087,,,,,,,,,,,,,,,,,,,,,,,,,,,,,,,,,,,,,,,,,130892,001,2023-11-15_15h05.22.517,main,2023.2.3,None,2023-11-15 15h05.29.941152 -0500,
4,80,33,-4,,,,,,,,,,,,,,,,,,,,,,,,,,,,,,,,,,0,2,2,5,,,,,,,,,,,,,,,,,,,,,,,,,,,,,147.96358270803466,,,,,,,,,,,,,,,,,,,,,,,,,,,,,,,,,,,,,,,,,,,,,,,,,,,,,,,,,147.95599141600542,147.96358270803466,149.97208749991842,149.95843124995008,,,,,,,,,,,,,,,,,,,,,,,,,,,,,,,,,,,,,,,,,130892,001,2023-11-15_15h05.22.517,main,2023.2.3,None,2023-11-15 15h05.29.941152 -0500,
6,20,21,-28,,,,,,,,,,,,,,,,,,,,,,,,,,,,,,,,,,0,3,3,0,,,,,,,,,,,,,,,,,,,,,,,,,,,,,149.97208749991842,,,,,,,,,,,,,,,,,,,,,,,,,,,,,,,,,,,,,,,,,,,,,,,,,,,,,,,,,149.9591233751271,149.97208749991842,151.97206541593187,151.9578375830315,,,,,,,,,,,,,,,,,,,,,,,,,,,,,,,,,,,,,,,,,130892,001,2023-11-15_15h05.22.517,main,2023.2.3,None,2023-11-15 15h05.29.941152 -0500,
8,640,3,-62,,,,,,,,,,,,,,,,,,,,,,,,,,,,,,,,,,0,4,4,1,,,,,,,,,,,,,,,,,,,,,,,,,,,,,151.97206541593187,,,,,,,,,,,,,,,,,,,,,,,,,,,,,,,,,,,,,,,,,,,,,,,,,,,,,,,,,151.95824633305892,151.97206541593187,153.96356583293527,153.95555424992926,,,,,,,,,,,,,,,,,,,,,,,,,,,,,,,,,,,,,,,,,130892,001,2023-11-15_15h05.22.517,main,2023.2.3,None,2023-11-15 15h05.29.941152 -0500,
12,260,51,-111,,,,,,,,,,,,,,,,,,,,,,,,,,,,,,,,,,0,5,5,2,,,,,,,,,,,,,,,,,,,,,,,,,,,,,153.96356583293527,,,,,,,,,,,,,,,,,,,,,,,,,,,,,,,,,,,,,,,,,,,,,,,,,,,,,,,,,153.95595616591163,153.96356583293527,155.95922120800242,155.95553295803256,,,,,,,,,,,,,,,,,,,,,,,,,,,,,,,,,,,,,,,,,130892,001,2023-11-15_15h05.22.517,main,2023.2.3,None,2023-11-15 15h05.29.941152 -0500,
,,,,,,,,,,,,,,,,,,,,,,,,,,,,,,,,,,,,,,,,,,,,,,,,,,,,,,,,,,,,,,,,,,,,,,,,,,,,,,,,,155.9556056659203,155.95922120800242,155.95922120800242,160.8909258749336,space,4.9195816670544446,None,,,,,,,,,,,,,,,,,,,,,,,,,,,,,,,,,,,,,,,,,,,,,,,,,,,,,,,,,,,,,,,,,,,,,,,,,,,,,,,,,,,130892,001,2023-11-15_15h05.22.517,main,2023.2.3,None,2023-11-15 15h05.29.941152 -0500,
"287,53,49","71, 24, 603","86, 150, 140","248, 9, 139",0,,,,,,,,,,,,,,,,,,,,,,,,,,,,,,,,,,,,,0,0,0,4,,,,,,,,,,,,,,,,,,,,,,,,,160.90882849995978,,,,,,,,,,,,,,,,,,,,,,,,,,,,,,,,,,,,,,,,,,,,,,,,,,,,,,,,,,,,,160.8988304999657,160.90882849995978,160.90882849995978,164.44161420804448,left,3.5209367498755455,None,,,,,,,,,,,,,,,,,,,,,,,,,,,,,,,,,,130892,001,2023-11-15_15h05.22.517,main,2023.2.3,None,2023-11-15 15h05.29.941152 -0500,
"42, 88, 20","180, 60, 50","463, 515, 119","-30, -61, -122",1,,,,,,,,,,,,,,,,,,,,,,,,,,,,,,,,,,,,,0,1,1,5,,,,,,,,,,,,,,,,,,,,,,,,,164.45465637510642,,,,,,,,,,,,,,,,,,,,,,,,,,,,,,,,,,,,,,,,,,,,,,,,,,,,,,,,,,,,,164.4426459579263,164.45465637510642,164.45465637510642,170.34194737509824,right,5.880295334151015,None,,,,,,,,,,,,,,,,,,,,,,,,,,,,,,,,,,130892,001,2023-11-15_15h05.22.517,main,2023.2.3,None,2023-11-15 15h05.29.941152 -0500,
"189, 77, 95","66, 138, 284","154, 166, 92","261, 67, 45",0,,,,,,,,,,,,,,,,,,,,,,,,,,,,,,,,,,,,,0,2,2,1,,,,,,,,,,,,,,,,,,,,,,,,,170.3552102909889,,,,,,,,,,,,,,,,,,,,,,,,,,,,,,,,,,,,,,,,,,,,,,,,,,,,,,,,,,,,,170.34321662504226,170.3552102909889,170.3552102909889,171.7919300410431,left,1.4297621250152588,None,,,,,,,,,,,,,,,,,,,,,,,,,,,,,,,,,,130892,001,2023-11-15_15h05.22.517,main,2023.2.3,None,2023-11-15 15h05.29.941152 -0500,
"222, 50, 90","280, 20, 170","583, 261, 513","-160, -50, -266",1,,,,,,,,,,,,,,,,,,,,,,,,,,,,,,,,,,,,,0,3,3,2,,,,,,,,,,,,,,,,,,,,,,,,,171.80645383312367,,,,,,,,,,,,,,,,,,,,,,,,,,,,,,,,,,,,,,,,,,,,,,,,,,,,,,,,,,,,,171.7922908749897,171.80645383312367,171.80645383312367,173.80556795792654,right,1.990622416837141,None,,,,,,,,,,,,,,,,,,,,,,,,,,,,,,,,,,130892,001,2023-11-15_15h05.22.517,main,2023.2.3,None,2023-11-15 15h05.29.941152 -0500,
"400, 76, 14","120, 270, 20","25, 87, 119","-16, -40, -27",1,,,,,,,,,,,,,,,,,,,,,,,,,,,,,,,,,,,,,0,4,4,3,,,,,,,,,,,,,,,,,,,,,,,,,173.8172687080223,,,,,,,,,,,,,,,,,,,,,,,,,,,,,,,,,,,,,,,,,,,,,,,,,,,,,,,,,,,,,173.80628404091112,173.8172687080223,173.8172687080223,174.79296983312815,right,0.9727186260279268,None,,,,,,,,,,,,,,,,,,,,,,,,,,,,,,,,,,130892,001,2023-11-15_15h05.22.517,main,2023.2.3,None,2023-11-15 15h05.29.941152 -0500,
"221,63,111","22, 44, 509","162, 70, 118","219, 288, 39",0,,,,,,,,,,,,,,,,,,,,,,,,,,,,,,,,,,,,,0,5,5,0,,,,,,,,,,,,,,,,,,,,,,,,,174.80477254092693,,,,,,,,,,,,,,,,,,,,,,,,,,,,,,,,,,,,,,,,,,,,,,,,,,,,,,,,,,,,,174.79345866595395,174.80477254092693,174.80477254092693,176.27199312509038,left,1.4569537511561066,None,,,,,,,,,,,,,,,,,,,,,,,,,,,,,,,,,,130892,001,2023-11-15_15h05.22.517,main,2023.2.3,None,2023-11-15 15h05.29.941152 -0500,
,,,,,,,,,,,,,,,,,,,,,,,,,,,,,,,,,,,,,,,,,,,,,,,,,,,,,,,,,,,,,,,,,,,,,,,176.27232391596772,176.27710300008766,176.27710300008766,178.4586465409957,space,2.17311445903033,None,,,,,,,,,,,,,,,,,,,,,,,,,,,,,,,,,,,,,,,,,,,,,,,,,,,,,,,,,,,,,,,,,,,,,,,,,,,,,,,,,,,,,,,,,,,,,130892,001,2023-11-15_15h05.22.517,main,2023.2.3,None,2023-11-15 15h05.29.941152 -0500,
98,170,77,-100,,,,,,,,,,,,,,,,,,,,,,,,,,,,,,,,,,,,,,,,,,0,0,0,3,,,,,,,,,,,,,,,,,,,,,178.47518029110506,,,,,,,,,,,,,,,,,,,,,,,,,,,,,,,,,,,,,,,,,,,,,,,,,,,,,,,,,,,,,,,,,,,,178.46518033300526,178.47518029110506,180.47177458298393,180.45799345802516,,,,,,,,,,,,,,,,,,,,,,,,,,,,,,130892,001,2023-11-15_15h05.22.517,main,2023.2.3,None,2023-11-15 15h05.29.941152 -0500,
4,80,33,-4,,,,,,,,,,,,,,,,,,,,,,,,,,,,,,,,,,,,,,,,,,0,1,1,5,,,,,,,,,,,,,,,,,,,,,180.47177458298393,,,,,,,,,,,,,,,,,,,,,,,,,,,,,,,,,,,,,,,,,,,,,,,,,,,,,,,,,,,,,,,,,,,,180.45821720804088,180.47177458298393,182.46632908307947,182.4573024159763,,,,,,,,,,,,,,,,,,,,,,,,,,,,,,130892,001,2023-11-15_15h05.22.517,main,2023.2.3,None,2023-11-15 15h05.29.941152 -0500,
40,30,91,-3,,,,,,,,,,,,,,,,,,,,,,,,,,,,,,,,,,,,,,,,,,0,2,2,4,,,,,,,,,,,,,,,,,,,,,182.46632908307947,,,,,,,,,,,,,,,,,,,,,,,,,,,,,,,,,,,,,,,,,,,,,,,,,,,,,,,,,,,,,,,,,,,,182.45798841607757,182.46632908307947,184.47195054101758,184.4581737080589,,,,,,,,,,,,,,,,,,,,,,,,,,,,,,130892,001,2023-11-15_15h05.22.517,main,2023.2.3,None,2023-11-15 15h05.29.941152 -0500,
6,20,21,-28,,,,,,,,,,,,,,,,,,,,,,,,,,,,,,,,,,,,,,,,,,0,3,3,0,,,,,,,,,,,,,,,,,,,,,184.47195054101758,,,,,,,,,,,,,,,,,,,,,,,,,,,,,,,,,,,,,,,,,,,,,,,,,,,,,,,,,,,,,,,,,,,,184.458920000121,184.47195054101758,186.47193508292548,186.4578426659573,,,,,,,,,,,,,,,,,,,,,,,,,,,,,,130892,001,2023-11-15_15h05.22.517,main,2023.2.3,None,2023-11-15 15h05.29.941152 -0500,
12,260,51,-111,,,,,,,,,,,,,,,,,,,,,,,,,,,,,,,,,,,,,,,,,,0,4,4,2,,,,,,,,,,,,,,,,,,,,,186.47193508292548,,,,,,,,,,,,,,,,,,,,,,,,,,,,,,,,,,,,,,,,,,,,,,,,,,,,,,,,,,,,,,,,,,,,186.45825129095465,186.47193508292548,188.46385562513024,188.45562045811675,,,,,,,,,,,,,,,,,,,,,,,,,,,,,,130892,001,2023-11-15_15h05.22.517,main,2023.2.3,None,2023-11-15 15h05.29.941152 -0500,
8,640,3,-62,,,,,,,,,,,,,,,,,,,,,,,,,,,,,,,,,,,,,,,,,,0,5,5,1,,,,,,,,,,,,,,,,,,,,,188.46385562513024,,,,,,,,,,,,,,,,,,,,,,,,,,,,,,,,,,,,,,,,,,,,,,,,,,,,,,,,,,,,,,,,,,,,188.45603091595694,188.46385562513024,190.47396308300085,190.45648987498134,,,,,,,,,,,,,,,,,,,,,,,,,,,,,,130892,001,2023-11-15_15h05.22.517,main,2023.2.3,None,2023-11-15 15h05.29.941152 -0500,
,,,,,,,,,,,,,,,,,,,,,,,,,,,,,,,,,,,,,,,,,,,,,,,,,,,,,,,,,,,,,,,,,,,,,,,,,,,,,,,,,190.4565809580963,190.47396308300085,190.47396308300085,198.3887954999227,space,7.911684958962724,None,,,,,,,,,,,,,,,,,,,,,,,,,,,,,,,,,,,,,,,,,,,,,,,,,,,,,,,,,,,,,,,,,,,,,,,,,,,,,,,,,,,130892,001,2023-11-15_15h05.22.517,main,2023.2.3,None,2023-11-15 15h05.29.941152 -0500,
"189, 77, 95","66, 138, 284","154, 166, 92","261, 67, 45",0,,,,,,,,,,,,,,,,,,,,,,,,,,,,,,,,,,,,,,,,,,,,,0,0,0,1,,,,,,,,,,,,,,,,,198.4050901250448,,,,,,,,,,,,,,,,,,,,,,,,,,,,,,,,,,,,,,,,,,,,,,,,,,,,,,,,,,,,,,,,,,,,,,,,198.39484862494282,198.4050901250448,198.4050901250448,202.17590512498282,left,3.767430250067264,None,,,,,,,,,,,,,,,,,,,,,,,130892,001,2023-11-15_15h05.22.517,main,2023.2.3,None,2023-11-15 15h05.29.941152 -0500,
"222, 50, 90","280, 20, 170","583, 261, 513","-160, -50, -266",1,,,,,,,,,,,,,,,,,,,,,,,,,,,,,,,,,,,,,,,,,,,,,0,1,1,2,,,,,,,,,,,,,,,,,202.18844250007533,,,,,,,,,,,,,,,,,,,,,,,,,,,,,,,,,,,,,,,,,,,,,,,,,,,,,,,,,,,,,,,,,,,,,,,,202.1769152081106,202.18844250007533,202.18844250007533,202.99234141595662,right,0.7929501249454916,None,,,,,,,,,,,,,,,,,,,,,,,130892,001,2023-11-15_15h05.22.517,main,2023.2.3,None,2023-11-15 15h05.29.941152 -0500,
"287,53,49","71, 24, 603","86, 150, 140","248, 9, 139",0,,,,,,,,,,,,,,,,,,,,,,,,,,,,,,,,,,,,,,,,,,,,,0,2,2,4,,,,,,,,,,,,,,,,,203.00438341591507,,,,,,,,,,,,,,,,,,,,,,,,,,,,,,,,,,,,,,,,,,,,,,,,,,,,,,,,,,,,,,,,,,,,,,,,202.99307258310728,203.00438341591507,203.00438341591507,204.69061574991792,left,1.6846820840146393,None,,,,,,,,,,,,,,,,,,,,,,,130892,001,2023-11-15_15h05.22.517,main,2023.2.3,None,2023-11-15 15h05.29.941152 -0500,
"42, 88, 20","180, 60, 50","463, 515, 119","-30, -61, -122",1,,,,,,,,,,,,,,,,,,,,,,,,,,,,,,,,,,,,,,,,,,,,,0,3,3,5,,,,,,,,,,,,,,,,,204.70429729111493,,,,,,,,,,,,,,,,,,,,,,,,,,,,,,,,,,,,,,,,,,,,,,,,,,,,,,,,,,,,,,,,,,,,,,,,204.69203791604377,204.70429729111493,204.70429729111493,205.67210970795713,right,0.9598535420373082,None,,,,,,,,,,,,,,,,,,,,,,,130892,001,2023-11-15_15h05.22.517,main,2023.2.3,None,2023-11-15 15h05.29.941152 -0500,
"400, 76, 14","120, 270, 20","25, 87, 119","-16, -40, -27",1,,,,,,,,,,,,,,,,,,,,,,,,,,,,,,,,,,,,,,,,,,,,,0,4,4,3,,,,,,,,,,,,,,,,,205.6834609999787,,,,,,,,,,,,,,,,,,,,,,,,,,,,,,,,,,,,,,,,,,,,,,,,,,,,,,,,,,,,,,,,,,,,,,,,205.67283358308487,205.6834609999787,205.6834609999787,207.23889270797372,right,1.547517750179395,None,,,,,,,,,,,,,,,,,,,,,,,130892,001,2023-11-15_15h05.22.517,main,2023.2.3,None,2023-11-15 15h05.29.941152 -0500,
"221,63,111","22, 44, 509","162, 70, 118","219, 288, 39",0,,,,,,,,,,,,,,,,,,,,,,,,,,,,,,,,,,,,,,,,,,,,,0,5,5,0,,,,,,,,,,,,,,,,,207.2507429579273,,,,,,,,,,,,,,,,,,,,,,,,,,,,,,,,,,,,,,,,,,,,,,,,,,,,,,,,,,,,,,,,,,,,,,,,207.23967649997212,207.2507429579273,207.2507429579273,209.22208354109898,left,1.9700141670182347,None,,,,,,,,,,,,,,,,,,,,,,,130892,001,2023-11-15_15h05.22.517,main,2023.2.3,None,2023-11-15 15h05.29.941152 -0500,
,,,,,,,,,,,,,,,,,,,,,,,,,,,,,,,,,,,,,,,,,,,,,,,,,,,,,,,,,,,,,,,,,,,,,,,209.22257074993104,209.22691812505946,209.22691812505946,210.97325245803222,space,1.7359294581692666,None,,,,,,,,,,,,,,,,,,,,,,,,,,,,,,,,,,,,,,,,,,,,,,,,,,,,,,,,,,,,,,,,,,,,,,,,,,,,,,,,,,,,,,,,,,,,,130892,001,2023-11-15_15h05.22.517,main,2023.2.3,None,2023-11-15 15h05.29.941152 -0500,
98,170,77,-100,,,,,,,,,,,,,,,,,,,,,,,,,,,,,,,,,,,,,,,,,,,,,,,,,,0,0,0,3,,,,,,,,,,,,,210.99067762494087,,,,,,,,,,,,,,,,,,,,,,,,,,,,,,,,,,,,,,,,,,,,,,,,,,,,,,,,,,,,,,,,,,,,,,,,,,,,,,,210.980325124925,210.99067762494087,212.97681899997406,,,,,,,,,,,,,,,,,,,,130892,001,2023-11-15_15h05.22.517,main,2023.2.3,None,2023-11-15 15h05.29.941152 -0500,
4,80,33,-4,,,,,,,,,,,,,,,,,,,,,,,,,,,,,,,,,,,,,,,,,,,,,,,,,,0,1,1,5,,,,,,,,,,,,,213.0595650409814,,,,,,,,,,,,,,,,,,,,,,,,,,,,,,,,,,,,,,,,,,,,,,,,,,,,,,,,,,,,,,,,,,,,,,,,,,,,,,,212.97725816606544,213.0595650409814,214.97503924998455,,,,,,,,,,,,,,,,,,,,130892,001,2023-11-15_15h05.22.517,main,2023.2.3,None,2023-11-15 15h05.29.941152 -0500,
40,30,91,-3,,,,,,,,,,,,,,,,,,,,,,,,,,,,,,,,,,,,,,,,,,,,,,,,,,0,2,2,4,,,,,,,,,,,,,214.98850720794871,,,,,,,,,,,,,,,,,,,,,,,,,,,,,,,,,,,,,,,,,,,,,,,,,,,,,,,,,,,,,,,,,,,,,,,,,,,,,,,214.97538529103622,214.98850720794871,216.97431437508203,,,,,,,,,,,,,,,,,,,,130892,001,2023-11-15_15h05.22.517,main,2023.2.3,None,2023-11-15 15h05.29.941152 -0500,
8,640,3,-62,,,,,,,,,,,,,,,,,,,,,,,,,,,,,,,,,,,,,,,,,,,,,,,,,,0,3,3,1,,,,,,,,,,,,,216.98839524993673,,,,,,,,,,,,,,,,,,,,,,,,,,,,,,,,,,,,,,,,,,,,,,,,,,,,,,,,,,,,,,,,,,,,,,,,,,,,,,,216.97504062508233,216.98839524993673,218.97205325006507,218.9804119579494,,,,,,,,,,,,,,,,,,,130892,001,2023-11-15_15h05.22.517,main,2023.2.3,None,2023-11-15 15h05.29.941152 -0500,
6,20,21,-28,,,,,,,,,,,,,,,,,,,,,,,,,,,,,,,,,,,,,,,,,,,,,,,,,,0,4,4,0,,,,,,,,,,,,,218.9804119579494,,,,,,,,,,,,,,,,,,,,,,,,,,,,,,,,,,,,,,,,,,,,,,,,,,,,,,,,,,,,,,,,,,,,,,,,,,,,,,,218.97248129104264,218.9804119579494,220.97180320811458,220.97902874997817,,,,,,,,,,,,,,,,,,,130892,001,2023-11-15_15h05.22.517,main,2023.2.3,None,2023-11-15 15h05.29.941152 -0500,
12,260,51,-111,,,,,,,,,,,,,,,,,,,,,,,,,,,,,,,,,,,,,,,,,,,,,,,,,,0,5,5,2,,,,,,,,,,,,,220.97902874997817,,,,,,,,,,,,,,,,,,,,,,,,,,,,,,,,,,,,,,,,,,,,,,,,,,,,,,,,,,,,,,,,,,,,,,,,,,,,,,,220.97215716610663,220.97902874997817,222.9739653330762,,,,,,,,,,,,,,,,,,,,130892,001,2023-11-15_15h05.22.517,main,2023.2.3,None,2023-11-15 15h05.29.941152 -0500,
,,,,,,,,,,,,,,,,,,,,,,,,,,,,,,,,,,,,,,,,,,,,,,,,,,,,,,,,,,,,,,,,,,,,,,,,,,,,,,,,,222.97415904095396,222.98845083313063,222.98845083313063,227.65961008309387,space,4.659270375035703,None,,,,,,,,,,,,,,,,,,,,,,,,,,,,,,,,,,,,,,,,,,,,,,,,,,,,,,,,,,,,,,,,,,,,,,,,,,,,,,,,,,,130892,001,2023-11-15_15h05.22.517,main,2023.2.3,None,2023-11-15 15h05.29.941152 -0500,
"287,53,49","71, 24, 603","86, 150, 140","248, 9, 139",0,,,,,,,,,,,,,,,,,,,,,,,,,,,,,,,,,,,,,,,,,,,,,,,,,,,,,0,0,0,4,,,,,,,,,227.67852675006725,,,,,,,,,,,,,,,,,,,,,,,,,,,,,,,,,,,,,,,,,,,,,,,,,,,,,,,,,,,,,,,,,,,,,,,,,,,,,,,,,,,227.66817741608247,227.67852675006725,227.67852675006725,228.40441679093055,left,0.7182924589142203,None,,,,,,,,,,,,130892,001,2023-11-15_15h05.22.517,main,2023.2.3,None,2023-11-15 15h05.29.941152 -0500,
"222, 50, 90","280, 20, 170","583, 261, 513","-160, -50, -266",1,,,,,,,,,,,,,,,,,,,,,,,,,,,,,,,,,,,,,,,,,,,,,,,,,,,,,0,1,1,2,,,,,,,,,228.40920358290896,,,,,,,,,,,,,,,,,,,,,,,,,,,,,,,,,,,,,,,,,,,,,,,,,,,,,,,,,,,,,,,,,,,,,,,,,,,,,,,,,,,228.40481250011362,228.40920358290896,228.40920358290896,229.775401791092,right,1.356380500132218,None,,,,,,,,,,,,130892,001,2023-11-15_15h05.22.517,main,2023.2.3,None,2023-11-15 15h05.29.941152 -0500,
"400, 76, 14","120, 270, 20","25, 87, 119","-16, -40, -27",1,,,,,,,,,,,,,,,,,,,,,,,,,,,,,,,,,,,,,,,,,,,,,,,,,,,,,0,2,2,3,,,,,,,,,229.78761395812035,,,,,,,,,,,,,,,,,,,,,,,,,,,,,,,,,,,,,,,,,,,,,,,,,,,,,,,,,,,,,,,,,,,,,,,,,,,,,,,,,,,229.77616970799863,229.78761395812035,229.78761395812035,233.30538320797496,right,3.5127667088527232,None,,,,,,,,,,,,130892,001,2023-11-15_15h05.22.517,main,2023.2.3,None,2023-11-15 15h05.29.941152 -0500,
"189, 77, 95","66, 138, 284","154, 166, 92","261, 67, 45",0,,,,,,,,,,,,,,,,,,,,,,,,,,,,,,,,,,,,,,,,,,,,,,,,,,,,,0,3,3,1,,,,,,,,,233.31634354102425,,,,,,,,,,,,,,,,,,,,,,,,,,,,,,,,,,,,,,,,,,,,,,,,,,,,,,,,,,,,,,,,,,,,,,,,,,,,,,,,,,,233.3059818749316,233.31634354102425,233.31634354102425,234.52653650008142,left,1.2044840829912573,None,,,,,,,,,,,,130892,001,2023-11-15_15h05.22.517,main,2023.2.3,None,2023-11-15 15h05.29.941152 -0500,
"221,63,111","22, 44, 509","162, 70, 118","219, 288, 39",0,,,,,,,,,,,,,,,,,,,,,,,,,,,,,,,,,,,,,,,,,,,,,,,,,,,,,0,4,4,0,,,,,,,,,234.53827929100953,,,,,,,,,,,,,,,,,,,,,,,,,,,,,,,,,,,,,,,,,,,,,,,,,,,,,,,,,,,,,,,,,,,,,,,,,,,,,,,,,,,234.52699541603215,234.53827929100953,234.53827929100953,238.34273050003685,left,3.7992656668648124,None,,,,,,,,,,,,130892,001,2023-11-15_15h05.22.517,main,2023.2.3,None,2023-11-15 15h05.29.941152 -0500,
"42, 88, 20","180, 60, 50","463, 515, 119","-30, -61, -122",1,,,,,,,,,,,,,,,,,,,,,,,,,,,,,,,,,,,,,,,,,,,,,,,,,,,,,0,5,5,5,,,,,,,,,238.3548717079684,,,,,,,,,,,,,,,,,,,,,,,,,,,,,,,,,,,,,,,,,,,,,,,,,,,,,,,,,,,,,,,,,,,,,,,,,,,,,,,,,,,238.34310666611418,238.3548717079684,238.3548717079684,239.35928495810367,right,1.0018392081838101,None,,,,,,,,,,,,130892,001,2023-11-15_15h05.22.517,main,2023.2.3,None,2023-11-15 15h05.29.941152 -0500,
,,,,,,,,,,,,,,,,,,,,,,,,,,,,,,,,,,,,,,,,,,,,,,,,,,,,,,,,,,,,,,,,,,,,,,,239.35978433303535,239.37159524997696,239.37159524997696,240.88856483297423,space,1.510025667026639,None,,,,,,,,,,,,,,,,,,,,,,,,,,,,,,,,,,,,,,,,,,,,,,,,,,,,,,,,,,,,,,,,,,,,,,,,,,,,,,,,,,,,,,,,,,,,,130892,001,2023-11-15_15h05.22.517,main,2023.2.3,None,2023-11-15 15h05.29.941152 -0500,
8,640,3,-62,,,,,,,,,,,,,,,,,,,,,,,,,,,,,,,,,,,,,,,,,,,,,,,,,,,,,,,,,,0,0,0,1,,,,,240.90739862504415,,,,,,,,,,,,,,,,,,,,,,,,,,,,,,,,,,,,,,,,,,,,,,,,,,,,,,,,,,,,,,,,,,,,,,,,,,,,,,,,,,,,,,,,,,240.89609645796008,240.90739862504415,242.8899623749312,,,,,,,,,130892,001,2023-11-15_15h05.22.517,main,2023.2.3,None,2023-11-15 15h05.29.941152 -0500,
12,260,51,-111,,,,,,,,,,,,,,,,,,,,,,,,,,,,,,,,,,,,,,,,,,,,,,,,,,,,,,,,,,0,1,1,2,,,,,242.89940749993548,,,,,,,,,,,,,,,,,,,,,,,,,,,,,,,,,,,,,,,,,,,,,,,,,,,,,,,,,,,,,,,,,,,,,,,,,,,,,,,,,,,,,,,,,,242.89080037502572,242.89940749993548,244.88841079105623,244.89629224990495,,,,,,,,130892,001,2023-11-15_15h05.22.517,main,2023.2.3,None,2023-11-15 15h05.29.941152 -0500,
4,80,33,-4,,,,,,,,,,,,,,,,,,,,,,,,,,,,,,,,,,,,,,,,,,,,,,,,,,,,,,,,,,0,2,2,5,,,,,244.89629224990495,,,,,,,,,,,,,,,,,,,,,,,,,,,,,,,,,,,,,,,,,,,,,,,,,,,,,,,,,,,,,,,,,,,,,,,,,,,,,,,,,,,,,,,,,,244.88881508307531,244.89629224990495,246.88848700001836,246.89551125001162,,,,,,,,130892,001,2023-11-15_15h05.22.517,main,2023.2.3,None,2023-11-15 15h05.29.941152 -0500,
40,30,91,-3,,,,,,,,,,,,,,,,,,,,,,,,,,,,,,,,,,,,,,,,,,,,,,,,,,,,,,,,,,0,3,3,4,,,,,246.89551125001162,,,,,,,,,,,,,,,,,,,,,,,,,,,,,,,,,,,,,,,,,,,,,,,,,,,,,,,,,,,,,,,,,,,,,,,,,,,,,,,,,,,,,,,,,,246.88882770808414,246.89551125001162,248.8909737081267,,,,,,,,,130892,001,2023-11-15_15h05.22.517,main,2023.2.3,None,2023-11-15 15h05.29.941152 -0500,
98,170,77,-100,,,,,,,,,,,,,,,,,,,,,,,,,,,,,,,,,,,,,,,,,,,,,,,,,,,,,,,,,,0,4,4,3,,,,,248.90481604100205,,,,,,,,,,,,,,,,,,,,,,,,,,,,,,,,,,,,,,,,,,,,,,,,,,,,,,,,,,,,,,,,,,,,,,,,,,,,,,,,,,,,,,,,,,248.89158362499438,248.90481604100205,250.88850895804353,250.89647920802236,,,,,,,,130892,001,2023-11-15_15h05.22.517,main,2023.2.3,None,2023-11-15 15h05.29.941152 -0500,
6,20,21,-28,,,,,,,,,,,,,,,,,,,,,,,,,,,,,,,,,,,,,,,,,,,,,,,,,,,,,,,,,,0,5,5,0,,,,,250.89647920802236,,,,,,,,,,,,,,,,,,,,,,,,,,,,,,,,,,,,,,,,,,,,,,,,,,,,,,,,,,,,,,,,,,,,,,,,,,,,,,,,,,,,,,,,,,250.88891420792788,250.89647920802236,252.8884801659733,252.89241483295336,,,,,,,,130892,001,2023-11-15_15h05.22.517,main,2023.2.3,None,2023-11-15 15h05.29.941152 -0500,
,,,,,,,,,,,,,,,,,,,,,,,,,,,,,,,,,,,,,,,,,,,,,,,,,,,,,,,,,,,,,,,,,,,,,,,,,,,,,,,,,252.88855329109356,252.89241483295336,252.89241483295336,255.4552938330453,space,2.5557227090466768,None,,,,,,,,,,,,,,,,,,,,,,,,,,,,,,,,,,,,,,,,,,,,,,,,,,,,,,,,,,,,,,,,,,,,,,,,,,,,,,,,,,,130892,001,2023-11-15_15h05.22.517,main,2023.2.3,None,2023-11-15 15h05.29.941152 -0500,
"287,53,49","71, 24, 603","86, 150, 140","248, 9, 139",0,,,,,,,,,,,,,,,,,,,,,,,,,,,,,,,,,,,,,,,,,,,,,,,,,,,,,,,,,,,,,0,0,0,4,255.47647824999876,,,,,,,,,,,,,,,,,,,,,,,,,,,,,,,,,,,,,,,,,,,,,,,,,,,,,,,,,,,,,,,,,,,,,,,,,,,,,,,,,,,,,,,,,,,,,,255.46480766590685,255.47647824999876,255.47647824999876,258.72388541605324,left,3.23733774991706,None,130892,001,2023-11-15_15h05.22.517,main,2023.2.3,None,2023-11-15 15h05.29.941152 -0500,
"400, 76, 14","120, 270, 20","25, 87, 119","-16, -40, -27",1,,,,,,,,,,,,,,,,,,,,,,,,,,,,,,,,,,,,,,,,,,,,,,,,,,,,,,,,,,,,,0,1,1,3,258.73811529111117,,,,,,,,,,,,,,,,,,,,,,,,,,,,,,,,,,,,,,,,,,,,,,,,,,,,,,,,,,,,,,,,,,,,,,,,,,,,,,,,,,,,,,,,,,,,,,258.7253097500652,258.73811529111117,258.73811529111117,259.97228049999103,right,1.225427791941911,None,130892,001,2023-11-15_15h05.22.517,main,2023.2.3,None,2023-11-15 15h05.29.941152 -0500,
"221,63,111","22, 44, 509","162, 70, 118","219, 288, 39",0,,,,,,,,,,,,,,,,,,,,,,,,,,,,,,,,,,,,,,,,,,,,,,,,,,,,,,,,,,,,,0,2,2,0,259.9842920410447,,,,,,,,,,,,,,,,,,,,,,,,,,,,,,,,,,,,,,,,,,,,,,,,,,,,,,,,,,,,,,,,,,,,,,,,,,,,,,,,,,,,,,,,,,,,,,259.97359204106033,259.9842920410447,259.9842920410447,260.7416773329023,left,0.7494726669974625,None,130892,001,2023-11-15_15h05.22.517,main,2023.2.3,None,2023-11-15 15h05.29.941152 -0500,
"42, 88, 20","180, 60, 50","463, 515, 119","-30, -61, -122",1,,,,,,,,,,,,,,,,,,,,,,,,,,,,,,,,,,,,,,,,,,,,,,,,,,,,,,,,,,,,,0,3,3,5,260.7544905000832,,,,,,,,,,,,,,,,,,,,,,,,,,,,,,,,,,,,,,,,,,,,,,,,,,,,,,,,,,,,,,,,,,,,,,,,,,,,,,,,,,,,,,,,,,,,,,260.7423585411161,260.7544905000832,260.7544905000832,261.9084987079259,right,1.150473376037553,None,130892,001,2023-11-15_15h05.22.517,main,2023.2.3,None,2023-11-15 15h05.29.941152 -0500,
"189, 77, 95","66, 138, 284","154, 166, 92","261, 67, 45",0,,,,,,,,,,,,,,,,,,,,,,,,,,,,,,,,,,,,,,,,,,,,,,,,,,,,,,,,,,,,,0,4,4,1,261.92158208298497,,,,,,,,,,,,,,,,,,,,,,,,,,,,,,,,,,,,,,,,,,,,,,,,,,,,,,,,,,,,,,,,,,,,,,,,,,,,,,,,,,,,,,,,,,,,,,261.9091613749042,261.92158208298497,261.92158208298497,262.60496920812875,left,0.6779882090631872,None,130892,001,2023-11-15_15h05.22.517,main,2023.2.3,None,2023-11-15 15h05.29.941152 -0500,
"222, 50, 90","280, 20, 170","583, 261, 513","-160, -50, -266",1,,,,,,,,,,,,,,,,,,,,,,,,,,,,,,,,,,,,,,,,,,,,,,,,,,,,,,,,,,,,,0,5,5,2,262.6142153330147,,,,,,,,,,,,,,,,,,,,,,,,,,,,,,,,,,,,,,,,,,,,,,,,,,,,,,,,,,,,,,,,,,,,,,,,,,,,,,,,,,,,,,,,,,,,,,262.605477000121,262.6142153330147,262.6142153330147,263.7585012910422,right,1.143116416875273,None,130892,001,2023-11-15_15h05.22.517,main,2023.2.3,None,2023-11-15 15h05.29.941152 -0500,
