Even,Ten,Odd,Negative,Correct,trials.thisRepN,trials.thisTrialN,trials.thisN,trials.thisIndex,trials_2.thisRepN,trials_2.thisTrialN,trials_2.thisN,trials_2.thisIndex,trials_3.thisRepN,trials_3.thisTrialN,trials_3.thisN,trials_3.thisIndex,trials_4.thisRepN,trials_4.thisTrialN,trials_4.thisN,trials_4.thisIndex,trials_5.thisRepN,trials_5.thisTrialN,trials_5.thisN,trials_5.thisIndex,trials_6.thisRepN,trials_6.thisTrialN,trials_6.thisN,trials_6.thisIndex,trials_7.thisRepN,trials_7.thisTrialN,trials_7.thisN,trials_7.thisIndex,trials_8.thisRepN,trials_8.thisTrialN,trials_8.thisN,trials_8.thisIndex,trials_9.thisRepN,trials_9.thisTrialN,trials_9.thisN,trials_9.thisIndex,trials_10.thisRepN,trials_10.thisTrialN,trials_10.thisN,trials_10.thisIndex,trials_11.thisRepN,trials_11.thisTrialN,trials_11.thisN,trials_11.thisIndex,trials_12.thisRepN,trials_12.thisTrialN,trials_12.thisN,trials_12.thisIndex,trials_13.thisRepN,trials_13.thisTrialN,trials_13.thisN,trials_13.thisIndex,trials_14.thisRepN,trials_14.thisTrialN,trials_14.thisN,trials_14.thisIndex,trials_15.thisRepN,trials_15.thisTrialN,trials_15.thisN,trials_15.thisIndex,trials_16.thisRepN,trials_16.thisTrialN,trials_16.thisN,trials_16.thisIndex,thisRow.t,notes,starttrain.started,key_resp.started,text.started,starttrain.stopped,key_resp.keys,key_resp.rt,key_resp.duration,Even_Train.started,text_2.started,Even_Train.stopped,starttest.started,text_4.started,key_resp_2.started,starttest.stopped,key_resp_2.keys,key_resp_2.rt,key_resp_2.duration,Even_Test.started,text_5.started,key_resp_3.started,Even_Test.stopped,key_resp_3.keys,key_resp_3.rt,key_resp_3.duration,Ten_Train.started,text_7.started,Ten_Train.stopped,text_7.stopped,Ten_Test.started,text_8.started,key_resp_4.started,Ten_Test.stopped,key_resp_4.keys,key_resp_4.rt,key_resp_4.duration,Odd_Train.started,text_3.started,Odd_Train.stopped,text_3.stopped,Odd_Test.started,text_9.started,key_resp_6.started,Odd_Test.stopped,key_resp_6.keys,key_resp_6.rt,key_resp_6.duration,Negative_Train.started,text_10.started,Negative_Train.stopped,text_10.stopped,Negative_Test.started,text_11.started,key_resp_7.started,Negative_Test.stopped,key_resp_7.keys,key_resp_7.rt,key_resp_7.duration,Even2.started,text_12.started,text_12.stopped,Even2.stopped,even2test.started,text_13.started,key_resp_8.started,even2test.stopped,key_resp_8.keys,key_resp_8.rt,key_resp_8.duration,ten2.started,text_14.started,text_14.stopped,ten2.stopped,ten2test.started,text_15.started,key_resp_9.started,ten2test.stopped,key_resp_9.keys,key_resp_9.rt,key_resp_9.duration,odd2.started,text_16.started,odd2.stopped,text_16.stopped,odd2test.started,text_17.started,key_resp_10.started,odd2test.stopped,key_resp_10.keys,key_resp_10.rt,key_resp_10.duration,neg2.started,text_18.started,text_18.stopped,neg2.stopped,neg2test.started,text_19.started,key_resp_11.started,neg2test.stopped,key_resp_11.keys,key_resp_11.rt,key_resp_11.duration,participant,session,date,expName,psychopyVersion,frameRate,expStart,
,,,,,,,,,,,,,,,,,,,,,,,,,,,,,,,,,,,,,,,,,,,,,,,,,,,,,,,,,,,,,,,,,,,,,,,0.005499457940459251,0.009223582921549678,0.009223582921549678,24.482417999999598,space,24.4707821670454,None,,,,,,,,,,,,,,,,,,,,,,,,,,,,,,,,,,,,,,,,,,,,,,,,,,,,,,,,,,,,,,,,,,,,,,,,,,,,,,,,,,,,,,,,,,,,,,,172881,001,2023-11-13_15h53.54.354,main,2023.2.3,None,2023-11-13 15h54.04.856473 -0500,
136,220,55,-59,,0,0,0,3,,,,,,,,,,,,,,,,,,,,,,,,,,,,,,,,,,,,,,,,,,,,,,,,,,,,,,,,,,,,,24.520287499995902,,,,,,,,,24.49521558289416,24.520287499995902,26.493472500005737,,,,,,,,,,,,,,,,,,,,,,,,,,,,,,,,,,,,,,,,,,,,,,,,,,,,,,,,,,,,,,,,,,,,,,,,,,,,,,,,,,,,,,,,,,,,172881,001,2023-11-13_15h53.54.354,main,2023.2.3,None,2023-11-13 15h54.04.856473 -0500,
32,20,7,-44,,0,1,1,1,,,,,,,,,,,,,,,,,,,,,,,,,,,,,,,,,,,,,,,,,,,,,,,,,,,,,,,,,,,,,26.49814866692759,,,,,,,,,26.49365995801054,26.49814866692759,28.49710849998519,,,,,,,,,,,,,,,,,,,,,,,,,,,,,,,,,,,,,,,,,,,,,,,,,,,,,,,,,,,,,,,,,,,,,,,,,,,,,,,,,,,,,,,,,,,,172881,001,2023-11-13_15h53.54.354,main,2023.2.3,None,2023-11-13 15h54.04.856473 -0500,
12,60,39,-845,,0,2,2,2,,,,,,,,,,,,,,,,,,,,,,,,,,,,,,,,,,,,,,,,,,,,,,,,,,,,,,,,,,,,,28.510868167039007,,,,,,,,,28.497968333074823,28.510868167039007,30.49651712505147,,,,,,,,,,,,,,,,,,,,,,,,,,,,,,,,,,,,,,,,,,,,,,,,,,,,,,,,,,,,,,,,,,,,,,,,,,,,,,,,,,,,,,,,,,,,172881,001,2023-11-13_15h53.54.354,main,2023.2.3,None,2023-11-13 15h54.04.856473 -0500,
2,40,95,-39,,0,3,3,0,,,,,,,,,,,,,,,,,,,,,,,,,,,,,,,,,,,,,,,,,,,,,,,,,,,,,,,,,,,,,30.510804999852553,,,,,,,,,30.497233832953498,30.510804999852553,32.494203333044425,,,,,,,,,,,,,,,,,,,,,,,,,,,,,,,,,,,,,,,,,,,,,,,,,,,,,,,,,,,,,,,,,,,,,,,,,,,,,,,,,,,,,,,,,,,,172881,001,2023-11-13_15h53.54.354,main,2023.2.3,None,2023-11-13 15h54.04.856473 -0500,
,,,,,,,,,,,,,,,,,,,,,,,,,,,,,,,,,,,,,,,,,,,,,,,,,,,,,,,,,,,,,,,,,,,,,,,,,,,,,,,,,32.49429616704583,32.498897624900565,32.498897624900565,38.461298417067155,space,5.959062542067841,None,,,,,,,,,,,,,,,,,,,,,,,,,,,,,,,,,,,,,,,,,,,,,,,,,,,,,,,,,,,,,,,,,,,,,,,,,,,,,,,,,,,,,172881,001,2023-11-13_15h53.54.354,main,2023.2.3,None,2023-11-13 15h54.04.856473 -0500,
"41, 187, 53","272,295,67","6, 168, 34","64, 21, 165",0,,,,,0,0,0,0,,,,,,,,,,,,,,,,,,,,,,,,,,,,,,,,,,,,,,,,,,,,,,,,,,,,,,,,,38.49617258296348,,,,,,,,,,,,,,,,,,,38.469707666896284,38.49617258296348,38.49617258296348,42.54754091706127,left,4.050458542071283,None,,,,,,,,,,,,,,,,,,,,,,,,,,,,,,,,,,,,,,,,,,,,,,,,,,,,,,,,,,,,,,,,,,,,,,,,,,,,,,172881,001,2023-11-13_15h53.54.354,main,2023.2.3,None,2023-11-13 15h54.04.856473 -0500,
"112, 216, 128","800, 900, 550","253, 173, 257","-65, -51, -27",1,,,,,0,1,1,3,,,,,,,,,,,,,,,,,,,,,,,,,,,,,,,,,,,,,,,,,,,,,,,,,,,,,,,,,42.57509404188022,,,,,,,,,,,,,,,,,,,42.548539750045165,42.57509404188022,42.57509404188022,44.38522133301012,right,1.8079403748270124,None,,,,,,,,,,,,,,,,,,,,,,,,,,,,,,,,,,,,,,,,,,,,,,,,,,,,,,,,,,,,,,,,,,,,,,,,,,,,,,172881,001,2023-11-13_15h53.54.354,main,2023.2.3,None,2023-11-13 15h54.04.856473 -0500,
"313, 9, 33","21, 204, 155","2, 142, 48","264, 198, 211",0,,,,,0,2,2,4,,,,,,,,,,,,,,,,,,,,,,,,,,,,,,,,,,,,,,,,,,,,,,,,,,,,,,,,,44.39916587504558,,,,,,,,,,,,,,,,,,,44.38596316706389,44.39916587504558,44.39916587504558,46.03016991703771,left,1.6181050830055028,None,,,,,,,,,,,,,,,,,,,,,,,,,,,,,,,,,,,,,,,,,,,,,,,,,,,,,,,,,,,,,,,,,,,,,,,,,,,,,,172881,001,2023-11-13_15h53.54.354,main,2023.2.3,None,2023-11-13 15h54.04.856473 -0500,
"122, 40, 18","270, 290, 60","465, 323, 97","-84, -100, -244",1,,,,,0,3,3,1,,,,,,,,,,,,,,,,,,,,,,,,,,,,,,,,,,,,,,,,,,,,,,,,,,,,,,,,,46.04321100004017,,,,,,,,,,,,,,,,,,,46.031312708044425,46.04321100004017,46.04321100004017,47.81115666707046,left,1.7598337510135025,None,,,,,,,,,,,,,,,,,,,,,,,,,,,,,,,,,,,,,,,,,,,,,,,,,,,,,,,,,,,,,,,,,,,,,,,,,,,,,,172881,001,2023-11-13_15h53.54.354,main,2023.2.3,None,2023-11-13 15h54.04.856473 -0500,
"91, 299, 31","282, 401, 66","134, 72, 188","136, 169, 0",0,,,,,0,4,4,5,,,,,,,,,,,,,,,,,,,,,,,,,,,,,,,,,,,,,,,,,,,,,,,,,,,,,,,,,47.82498500007205,,,,,,,,,,,,,,,,,,,47.81245912495069,47.82498500007205,47.82498500007205,49.21177904191427,left,1.3744272920303047,None,,,,,,,,,,,,,,,,,,,,,,,,,,,,,,,,,,,,,,,,,,,,,,,,,,,,,,,,,,,,,,,,,,,,,,,,,,,,,,172881,001,2023-11-13_15h53.54.354,main,2023.2.3,None,2023-11-13 15h54.04.856473 -0500,
"10, 70, 56","20, 200, 160","97, 93, 3","-174, -9, -92",1,,,,,0,5,5,2,,,,,,,,,,,,,,,,,,,,,,,,,,,,,,,,,,,,,,,,,,,,,,,,,,,,,,,,,49.2251767499838,,,,,,,,,,,,,,,,,,,49.213089582975954,49.2251767499838,49.2251767499838,50.56351116695441,left,1.3247690838761628,None,,,,,,,,,,,,,,,,,,,,,,,,,,,,,,,,,,,,,,,,,,,,,,,,,,,,,,,,,,,,,,,,,,,,,,,,,,,,,,172881,001,2023-11-13_15h53.54.354,main,2023.2.3,None,2023-11-13 15h54.04.856473 -0500,
,,,,,,,,,,,,,,,,,,,,,,,,,,,,,,,,,,,,,,,,,,,,,,,,,,,,,,,,,,,,,,,,,,,,,,,50.564253041986376,50.57704612496309,50.57704612496309,52.530889082932845,space,1.952263084007427,None,,,,,,,,,,,,,,,,,,,,,,,,,,,,,,,,,,,,,,,,,,,,,,,,,,,,,,,,,,,,,,,,,,,,,,,,,,,,,,,,,,,,,,,,,,,,,,,172881,001,2023-11-13_15h53.54.354,main,2023.2.3,None,2023-11-13 15h54.04.856473 -0500,
32,20,7,-44,,,,,,,,,,0,0,0,1,,,,,,,,,,,,,,,,,,,,,,,,,,,,,,,,,,,,,,,,,,,,,,,,,,,,,52.54825579188764,,,,,,,,,,,,,,,,,,,,,,,,,,52.538017499959096,52.54825579188764,54.54332820791751,,,,,,,,,,,,,,,,,,,,,,,,,,,,,,,,,,,,,,,,,,,,,,,,,,,,,,,,,,,,,,,,,,,,,,,,,,,172881,001,2023-11-13_15h53.54.354,main,2023.2.3,None,2023-11-13 15h54.04.856473 -0500,
136,220,55,-59,,,,,,,,,,0,1,1,3,,,,,,,,,,,,,,,,,,,,,,,,,,,,,,,,,,,,,,,,,,,,,,,,,,,,,54.54726429190487,,,,,,,,,,,,,,,,,,,,,,,,,,54.54351849993691,54.54726429190487,56.53066416690126,56.54401862504892,,,,,,,,,,,,,,,,,,,,,,,,,,,,,,,,,,,,,,,,,,,,,,,,,,,,,,,,,,,,,,,,,,,,,,,,,,172881,001,2023-11-13_15h53.54.354,main,2023.2.3,None,2023-11-13 15h54.04.856473 -0500,
12,60,39,-845,,,,,,,,,,0,2,2,2,,,,,,,,,,,,,,,,,,,,,,,,,,,,,,,,,,,,,,,,,,,,,,,,,,,,,56.54401862504892,,,,,,,,,,,,,,,,,,,,,,,,,,56.53135299985297,56.54401862504892,58.52995662507601,58.543986208038405,,,,,,,,,,,,,,,,,,,,,,,,,,,,,,,,,,,,,,,,,,,,,,,,,,,,,,,,,,,,,,,,,,,,,,,,,,172881,001,2023-11-13_15h53.54.354,main,2023.2.3,None,2023-11-13 15h54.04.856473 -0500,
2,40,95,-39,,,,,,,,,,0,3,3,0,,,,,,,,,,,,,,,,,,,,,,,,,,,,,,,,,,,,,,,,,,,,,,,,,,,,,58.543986208038405,,,,,,,,,,,,,,,,,,,,,,,,,,58.5302734170109,58.543986208038405,60.5272929999046,60.53037424990907,,,,,,,,,,,,,,,,,,,,,,,,,,,,,,,,,,,,,,,,,,,,,,,,,,,,,,,,,,,,,,,,,,,,,,,,,,172881,001,2023-11-13_15h53.54.354,main,2023.2.3,None,2023-11-13 15h54.04.856473 -0500,
,,,,,,,,,,,,,,,,,,,,,,,,,,,,,,,,,,,,,,,,,,,,,,,,,,,,,,,,,,,,,,,,,,,,,,,,,,,,,,,,,60.52739637508057,60.53037424990907,60.53037424990907,62.96086770808324,space,2.4249756259378046,None,,,,,,,,,,,,,,,,,,,,,,,,,,,,,,,,,,,,,,,,,,,,,,,,,,,,,,,,,,,,,,,,,,,,,,,,,,,,,,,,,,,,,172881,001,2023-11-13_15h53.54.354,main,2023.2.3,None,2023-11-13 15h54.04.856473 -0500,
"41, 187, 53","272,295,67","6, 168, 34","64, 21, 165",0,,,,,,,,,,,,,0,0,0,0,,,,,,,,,,,,,,,,,,,,,,,,,,,,,,,,,,,,,,,,,,,,,,,,,62.98095891694538,,,,,,,,,,,,,,,,,,,,,,,,,,,,,,62.969443999929354,62.98095891694538,62.98095891694538,63.743410292081535,left,0.749383833957836,None,,,,,,,,,,,,,,,,,,,,,,,,,,,,,,,,,,,,,,,,,,,,,,,,,,,,,,,,,,,,,,,,,,,172881,001,2023-11-13_15h53.54.354,main,2023.2.3,None,2023-11-13 15h54.04.856473 -0500,
"91, 299, 31","282, 401, 66","134, 72, 188","136, 169, 0",0,,,,,,,,,,,,,0,1,1,5,,,,,,,,,,,,,,,,,,,,,,,,,,,,,,,,,,,,,,,,,,,,,,,,,63.748219083063304,,,,,,,,,,,,,,,,,,,,,,,,,,,,,,63.743821332929656,63.748219083063304,63.748219083063304,64.84336441685446,left,1.0823066250886768,None,,,,,,,,,,,,,,,,,,,,,,,,,,,,,,,,,,,,,,,,,,,,,,,,,,,,,,,,,,,,,,,,,,,172881,001,2023-11-13_15h53.54.354,main,2023.2.3,None,2023-11-13 15h54.04.856473 -0500,
"10, 70, 56","20, 200, 160","97, 93, 3","-174, -9, -92",1,,,,,,,,,,,,,0,2,2,2,,,,,,,,,,,,,,,,,,,,,,,,,,,,,,,,,,,,,,,,,,,,,,,,,64.84799645794556,,,,,,,,,,,,,,,,,,,,,,,,,,,,,,64.84366137487814,64.84799645794556,64.84799645794556,67.04652079194784,right,2.1933944588527083,None,,,,,,,,,,,,,,,,,,,,,,,,,,,,,,,,,,,,,,,,,,,,,,,,,,,,,,,,,,,,,,,,,,,172881,001,2023-11-13_15h53.54.354,main,2023.2.3,None,2023-11-13 15h54.04.856473 -0500,
"112, 216, 128","800, 900, 550","253, 173, 257","-65, -51, -27",1,,,,,,,,,,,,,0,3,3,3,,,,,,,,,,,,,,,,,,,,,,,,,,,,,,,,,,,,,,,,,,,,,,,,,67.0605482920073,,,,,,,,,,,,,,,,,,,,,,,,,,,,,,67.04713991703466,67.0605482920073,67.0605482920073,67.89397570793517,right,0.824072124902159,None,,,,,,,,,,,,,,,,,,,,,,,,,,,,,,,,,,,,,,,,,,,,,,,,,,,,,,,,,,,,,,,,,,,172881,001,2023-11-13_15h53.54.354,main,2023.2.3,None,2023-11-13 15h54.04.856473 -0500,
"122, 40, 18","270, 290, 60","465, 323, 97","-84, -100, -244",1,,,,,,,,,,,,,0,4,4,1,,,,,,,,,,,,,,,,,,,,,,,,,,,,,,,,,,,,,,,,,,,,,,,,,67.90252595790662,,,,,,,,,,,,,,,,,,,,,,,,,,,,,,67.89443562505767,67.90252595790662,67.90252595790662,68.6306344580371,right,0.7163718328811228,None,,,,,,,,,,,,,,,,,,,,,,,,,,,,,,,,,,,,,,,,,,,,,,,,,,,,,,,,,,,,,,,,,,,172881,001,2023-11-13_15h53.54.354,main,2023.2.3,None,2023-11-13 15h54.04.856473 -0500,
"313, 9, 33","21, 204, 155","2, 142, 48","264, 198, 211",0,,,,,,,,,,,,,0,5,5,4,,,,,,,,,,,,,,,,,,,,,,,,,,,,,,,,,,,,,,,,,,,,,,,,,68.64321474987082,,,,,,,,,,,,,,,,,,,,,,,,,,,,,,68.63193079200573,68.64321474987082,68.64321474987082,69.33022554195486,left,0.6858154581859708,None,,,,,,,,,,,,,,,,,,,,,,,,,,,,,,,,,,,,,,,,,,,,,,,,,,,,,,,,,,,,,,,,,,,172881,001,2023-11-13_15h53.54.354,main,2023.2.3,None,2023-11-13 15h54.04.856473 -0500,
,,,,,,,,,,,,,,,,,,,,,,,,,,,,,,,,,,,,,,,,,,,,,,,,,,,,,,,,,,,,,,,,,,,,,,,69.33070883294567,69.34398250002414,69.34398250002414,70.71319124987349,space,1.357953584054485,None,,,,,,,,,,,,,,,,,,,,,,,,,,,,,,,,,,,,,,,,,,,,,,,,,,,,,,,,,,,,,,,,,,,,,,,,,,,,,,,,,,,,,,,,,,,,,,,172881,001,2023-11-13_15h53.54.354,main,2023.2.3,None,2023-11-13 15h54.04.856473 -0500,
2,40,95,-39,,,,,,,,,,,,,,,,,,0,0,0,0,,,,,,,,,,,,,,,,,,,,,,,,,,,,,,,,,,,,,,,,,,,,,70.73008620785549,,,,,,,,,,,,,,,,,,,,,,,,,,,,,,,,,,,,,70.71898083295673,70.73008620785549,72.72652562498115,,,,,,,,,,,,,,,,,,,,,,,,,,,,,,,,,,,,,,,,,,,,,,,,,,,,,,,,,,,,,,,,172881,001,2023-11-13_15h53.54.354,main,2023.2.3,None,2023-11-13 15h54.04.856473 -0500,
136,220,55,-59,,,,,,,,,,,,,,,,,,0,1,1,3,,,,,,,,,,,,,,,,,,,,,,,,,,,,,,,,,,,,,,,,,,,,,72.73001933307387,,,,,,,,,,,,,,,,,,,,,,,,,,,,,,,,,,,,,72.72671741689555,72.73001933307387,74.7174286248628,,,,,,,,,,,,,,,,,,,,,,,,,,,,,,,,,,,,,,,,,,,,,,,,,,,,,,,,,,,,,,,,172881,001,2023-11-13_15h53.54.354,main,2023.2.3,None,2023-11-13 15h54.04.856473 -0500,
12,60,39,-845,,,,,,,,,,,,,,,,,,0,2,2,2,,,,,,,,,,,,,,,,,,,,,,,,,,,,,,,,,,,,,,,,,,,,,74.72635762486607,,,,,,,,,,,,,,,,,,,,,,,,,,,,,,,,,,,,,74.71786837489344,74.72635762486607,76.71366758295335,,,,,,,,,,,,,,,,,,,,,,,,,,,,,,,,,,,,,,,,,,,,,,,,,,,,,,,,,,,,,,,,172881,001,2023-11-13_15h53.54.354,main,2023.2.3,None,2023-11-13 15h54.04.856473 -0500,
32,20,7,-44,,,,,,,,,,,,,,,,,,0,3,3,1,,,,,,,,,,,,,,,,,,,,,,,,,,,,,,,,,,,,,,,,,,,,,76.72724754200317,,,,,,,,,,,,,,,,,,,,,,,,,,,,,,,,,,,,,76.71459683286957,76.72724754200317,78.71081191697158,78.71538050007075,,,,,,,,,,,,,,,,,,,,,,,,,,,,,,,,,,,,,,,,,,,,,,,,,,,,,,,,,,,,,,,172881,001,2023-11-13_15h53.54.354,main,2023.2.3,None,2023-11-13 15h54.04.856473 -0500,
,,,,,,,,,,,,,,,,,,,,,,,,,,,,,,,,,,,,,,,,,,,,,,,,,,,,,,,,,,,,,,,,,,,,,,,,,,,,,,,,,78.71090358286165,78.71538050007075,78.71538050007075,100.56289812503383,space,21.835708333179355,None,,,,,,,,,,,,,,,,,,,,,,,,,,,,,,,,,,,,,,,,,,,,,,,,,,,,,,,,,,,,,,,,,,,,,,,,,,,,,,,,,,,,,172881,001,2023-11-13_15h53.54.354,main,2023.2.3,None,2023-11-13 15h54.04.856473 -0500,
"41, 187, 53","272,295,67","6, 168, 34","64, 21, 165",0,,,,,,,,,,,,,,,,,,,,,0,0,0,0,,,,,,,,,,,,,,,,,,,,,,,,,,,,,,,,,,,,,,,,,100.58105558296666,,,,,,,,,,,,,,,,,,,,,,,,,,,,,,,,,,,,,,,,,100.57060237508267,100.58105558296666,100.58105558296666,115.11462870799005,left,14.525848417077214,None,,,,,,,,,,,,,,,,,,,,,,,,,,,,,,,,,,,,,,,,,,,,,,,,,,,,,,,,172881,001,2023-11-13_15h53.54.354,main,2023.2.3,None,2023-11-13 15h54.04.856473 -0500,
"10, 70, 56","20, 200, 160","97, 93, 3","-174, -9, -92",1,,,,,,,,,,,,,,,,,,,,,0,1,1,2,,,,,,,,,,,,,,,,,,,,,,,,,,,,,,,,,,,,,,,,,115.12690262496471,,,,,,,,,,,,,,,,,,,,,,,,,,,,,,,,,,,,,,,,,115.11599541688338,115.12690262496471,115.12690262496471,119.54733274993487,left,4.4159877500496805,None,,,,,,,,,,,,,,,,,,,,,,,,,,,,,,,,,,,,,,,,,,,,,,,,,,,,,,,,172881,001,2023-11-13_15h53.54.354,main,2023.2.3,None,2023-11-13 15h54.04.856473 -0500,
"122, 40, 18","270, 290, 60","465, 323, 97","-84, -100, -244",1,,,,,,,,,,,,,,,,,,,,,0,2,2,1,,,,,,,,,,,,,,,,,,,,,,,,,,,,,,,,,,,,,,,,,119.56030966690741,,,,,,,,,,,,,,,,,,,,,,,,,,,,,,,,,,,,,,,,,119.54795954190195,119.56030966690741,119.56030966690741,121.63094049994834,left,2.068618332967162,None,,,,,,,,,,,,,,,,,,,,,,,,,,,,,,,,,,,,,,,,,,,,,,,,,,,,,,,,172881,001,2023-11-13_15h53.54.354,main,2023.2.3,None,2023-11-13 15h54.04.856473 -0500,
"112, 216, 128","800, 900, 550","253, 173, 257","-65, -51, -27",1,,,,,,,,,,,,,,,,,,,,,0,3,3,3,,,,,,,,,,,,,,,,,,,,,,,,,,,,,,,,,,,,,,,,,121.64277274999768,,,,,,,,,,,,,,,,,,,,,,,,,,,,,,,,,,,,,,,,,121.6316700829193,121.64277274999768,121.64277274999768,124.07725283293985,right,2.43400983302854,None,,,,,,,,,,,,,,,,,,,,,,,,,,,,,,,,,,,,,,,,,,,,,,,,,,,,,,,,172881,001,2023-11-13_15h53.54.354,main,2023.2.3,None,2023-11-13 15h54.04.856473 -0500,
"91, 299, 31","282, 401, 66","134, 72, 188","136, 169, 0",0,,,,,,,,,,,,,,,,,,,,,0,4,4,5,,,,,,,,,,,,,,,,,,,,,,,,,,,,,,,,,,,,,,,,,124.08870079205371,,,,,,,,,,,,,,,,,,,,,,,,,,,,,,,,,,,,,,,,,124.07787337503396,124.08870079205371,124.08870079205371,124.84654254186898,left,0.7511911250185221,None,,,,,,,,,,,,,,,,,,,,,,,,,,,,,,,,,,,,,,,,,,,,,,,,,,,,,,,,172881,001,2023-11-13_15h53.54.354,main,2023.2.3,None,2023-11-13 15h54.04.856473 -0500,
"313, 9, 33","21, 204, 155","2, 142, 48","264, 198, 211",0,,,,,,,,,,,,,,,,,,,,,0,5,5,4,,,,,,,,,,,,,,,,,,,,,,,,,,,,,,,,,,,,,,,,,124.85985258291475,,,,,,,,,,,,,,,,,,,,,,,,,,,,,,,,,,,,,,,,,124.84717433294281,124.85985258291475,124.85985258291475,126.1967173749581,left,1.3249061251990497,None,,,,,,,,,,,,,,,,,,,,,,,,,,,,,,,,,,,,,,,,,,,,,,,,,,,,,,,,172881,001,2023-11-13_15h53.54.354,main,2023.2.3,None,2023-11-13 15h54.04.856473 -0500,
,,,,,,,,,,,,,,,,,,,,,,,,,,,,,,,,,,,,,,,,,,,,,,,,,,,,,,,,,,,,,,,,,,,,,,,126.19753604196012,126.21009937487543,126.21009937487543,127.44462929200381,space,1.219118749955669,None,,,,,,,,,,,,,,,,,,,,,,,,,,,,,,,,,,,,,,,,,,,,,,,,,,,,,,,,,,,,,,,,,,,,,,,,,,,,,,,,,,,,,,,,,,,,,,,172881,001,2023-11-13_15h53.54.354,main,2023.2.3,None,2023-11-13 15h54.04.856473 -0500,
32,20,7,-44,,,,,,,,,,,,,,,,,,,,,,,,,,0,0,0,1,,,,,,,,,,,,,,,,,,,,,,,,,,,,,,,,,,,,,127.46522304206155,,,,,,,,,,,,,,,,,,,,,,,,,,,,,,,,,,,,,,,,,,,,,,,,127.45326129207388,127.46522304206155,129.44506300007924,,,,,,,,,,,,,,,,,,,,,,,,,,,,,,,,,,,,,,,,,,,,,,,,,,,,,172881,001,2023-11-13_15h53.54.354,main,2023.2.3,None,2023-11-13 15h54.04.856473 -0500,
136,220,55,-59,,,,,,,,,,,,,,,,,,,,,,,,,,0,1,1,3,,,,,,,,,,,,,,,,,,,,,,,,,,,,,,,,,,,,,129.45963962492533,,,,,,,,,,,,,,,,,,,,,,,,,,,,,,,,,,,,,,,,,,,,,,,,129.44525962485932,129.45963962492533,131.4465860829223,,,,,,,,,,,,,,,,,,,,,,,,,,,,,,,,,,,,,,,,,,,,,,,,,,,,,172881,001,2023-11-13_15h53.54.354,main,2023.2.3,None,2023-11-13 15h54.04.856473 -0500,
2,40,95,-39,,,,,,,,,,,,,,,,,,,,,,,,,,0,2,2,0,,,,,,,,,,,,,,,,,,,,,,,,,,,,,,,,,,,,,131.46041454188526,,,,,,,,,,,,,,,,,,,,,,,,,,,,,,,,,,,,,,,,,,,,,,,,131.44709466700442,131.46041454188526,133.44617283297703,,,,,,,,,,,,,,,,,,,,,,,,,,,,,,,,,,,,,,,,,,,,,,,,,,,,,172881,001,2023-11-13_15h53.54.354,main,2023.2.3,None,2023-11-13 15h54.04.856473 -0500,
12,60,39,-845,,,,,,,,,,,,,,,,,,,,,,,,,,0,3,3,2,,,,,,,,,,,,,,,,,,,,,,,,,,,,,,,,,,,,,133.46028366708197,,,,,,,,,,,,,,,,,,,,,,,,,,,,,,,,,,,,,,,,,,,,,,,,133.44702545786276,133.46028366708197,135.44361800001934,135.44717229204252,,,,,,,,,,,,,,,,,,,,,,,,,,,,,,,,,,,,,,,,,,,,,,,,,,,,172881,001,2023-11-13_15h53.54.354,main,2023.2.3,None,2023-11-13 15h54.04.856473 -0500,
,,,,,,,,,,,,,,,,,,,,,,,,,,,,,,,,,,,,,,,,,,,,,,,,,,,,,,,,,,,,,,,,,,,,,,,,,,,,,,,,,135.44371454208158,135.44717229204252,135.44717229204252,137.67721812496893,space,2.2156808748841286,None,,,,,,,,,,,,,,,,,,,,,,,,,,,,,,,,,,,,,,,,,,,,,,,,,,,,,,,,,,,,,,,,,,,,,,,,,,,,,,,,,,,,,172881,001,2023-11-13_15h53.54.354,main,2023.2.3,None,2023-11-13 15h54.04.856473 -0500,
"122, 40, 18","270, 290, 60","465, 323, 97","-84, -100, -244",1,,,,,,,,,,,,,,,,,,,,,,,,,,,,,0,0,0,1,,,,,,,,,,,,,,,,,,,,,,,,,,,,,,,,,137.69591187499464,,,,,,,,,,,,,,,,,,,,,,,,,,,,,,,,,,,,,,,,,,,,,,,,,,,,137.68369937501848,137.69591187499464,137.69591187499464,139.22938799997792,right,1.5304519589990377,None,,,,,,,,,,,,,,,,,,,,,,,,,,,,,,,,,,,,,,,,,,,,,172881,001,2023-11-13_15h53.54.354,main,2023.2.3,None,2023-11-13 15h54.04.856473 -0500,
"10, 70, 56","20, 200, 160","97, 93, 3","-174, -9, -92",1,,,,,,,,,,,,,,,,,,,,,,,,,,,,,0,1,1,2,,,,,,,,,,,,,,,,,,,,,,,,,,,,,,,,,139.24293637485243,,,,,,,,,,,,,,,,,,,,,,,,,,,,,,,,,,,,,,,,,,,,,,,,,,,,139.22979441704229,139.24293637485243,139.24293637485243,140.27708541695029,right,1.0218516669701785,None,,,,,,,,,,,,,,,,,,,,,,,,,,,,,,,,,,,,,,,,,,,,,172881,001,2023-11-13_15h53.54.354,main,2023.2.3,None,2023-11-13 15h54.04.856473 -0500,
"313, 9, 33","21, 204, 155","2, 142, 48","264, 198, 211",0,,,,,,,,,,,,,,,,,,,,,,,,,,,,,0,2,2,4,,,,,,,,,,,,,,,,,,,,,,,,,,,,,,,,,140.28522220789455,,,,,,,,,,,,,,,,,,,,,,,,,,,,,,,,,,,,,,,,,,,,,,,,,,,,140.277564750053,140.28522220789455,140.28522220789455,140.8942577498965,left,0.5980794169008732,None,,,,,,,,,,,,,,,,,,,,,,,,,,,,,,,,,,,,,,,,,,,,,172881,001,2023-11-13_15h53.54.354,main,2023.2.3,None,2023-11-13 15h54.04.856473 -0500,
"91, 299, 31","282, 401, 66","134, 72, 188","136, 169, 0",0,,,,,,,,,,,,,,,,,,,,,,,,,,,,,0,3,3,5,,,,,,,,,,,,,,,,,,,,,,,,,,,,,,,,,140.9022731250152,,,,,,,,,,,,,,,,,,,,,,,,,,,,,,,,,,,,,,,,,,,,,,,,,,,,140.89470499986783,140.9022731250152,140.9022731250152,141.51364991697483,left,0.5968422507867217,None,,,,,,,,,,,,,,,,,,,,,,,,,,,,,,,,,,,,,,,,,,,,,172881,001,2023-11-13_15h53.54.354,main,2023.2.3,None,2023-11-13 15h54.04.856473 -0500,
"112, 216, 128","800, 900, 550","253, 173, 257","-65, -51, -27",1,,,,,,,,,,,,,,,,,,,,,,,,,,,,,0,4,4,3,,,,,,,,,,,,,,,,,,,,,,,,,,,,,,,,,141.5261643328704,,,,,,,,,,,,,,,,,,,,,,,,,,,,,,,,,,,,,,,,,,,,,,,,,,,,141.51439995807596,141.5261643328704,141.5261643328704,142.13053108286113,right,0.5884622922167182,None,,,,,,,,,,,,,,,,,,,,,,,,,,,,,,,,,,,,,,,,,,,,,172881,001,2023-11-13_15h53.54.354,main,2023.2.3,None,2023-11-13 15h54.04.856473 -0500,
"41, 187, 53","272,295,67","6, 168, 34","64, 21, 165",0,,,,,,,,,,,,,,,,,,,,,,,,,,,,,0,5,5,0,,,,,,,,,,,,,,,,,,,,,,,,,,,,,,,,,142.14355204207823,,,,,,,,,,,,,,,,,,,,,,,,,,,,,,,,,,,,,,,,,,,,,,,,,,,,142.13096379186027,142.14355204207823,142.14355204207823,142.73276487505063,left,0.5827090831007808,None,,,,,,,,,,,,,,,,,,,,,,,,,,,,,,,,,,,,,,,,,,,,,172881,001,2023-11-13_15h53.54.354,main,2023.2.3,None,2023-11-13 15h54.04.856473 -0500,
,,,,,,,,,,,,,,,,,,,,,,,,,,,,,,,,,,,,,,,,,,,,,,,,,,,,,,,,,,,,,,,,,,,,,,,142.7331000000704,142.74345749989152,142.74345749989152,143.7959330419544,space,1.042865167139098,None,,,,,,,,,,,,,,,,,,,,,,,,,,,,,,,,,,,,,,,,,,,,,,,,,,,,,,,,,,,,,,,,,,,,,,,,,,,,,,,,,,,,,,,,,,,,,,,172881,001,2023-11-13_15h53.54.354,main,2023.2.3,None,2023-11-13 15h54.04.856473 -0500,
40,30,91,-3,,,,,,,,,,,,,,,,,,,,,,,,,,,,,,,,,,0,0,0,4,,,,,,,,,,,,,,,,,,,,,,,,,,,,,143.80988991702907,,,,,,,,,,,,,,,,,,,,,,,,,,,,,,,,,,,,,,,,,,,,,,,,,,,,,,,,,,,143.80140700004995,143.80988991702907,145.79664579196833,145.79292695806362,,,,,,,,,,,,,,,,,,,,,,,,,,,,,,,,,,,,,,,,,172881,001,2023-11-13_15h53.54.354,main,2023.2.3,None,2023-11-13 15h54.04.856473 -0500,
12,260,51,-111,,,,,,,,,,,,,,,,,,,,,,,,,,,,,,,,,,0,1,1,2,,,,,,,,,,,,,,,,,,,,,,,,,,,,,145.79664579196833,,,,,,,,,,,,,,,,,,,,,,,,,,,,,,,,,,,,,,,,,,,,,,,,,,,,,,,,,,,145.7931121669244,145.79664579196833,147.79356929194182,147.77984987501986,,,,,,,,,,,,,,,,,,,,,,,,,,,,,,,,,,,,,,,,,172881,001,2023-11-13_15h53.54.354,main,2023.2.3,None,2023-11-13 15h54.04.856473 -0500,
4,80,33,-4,,,,,,,,,,,,,,,,,,,,,,,,,,,,,,,,,,0,2,2,5,,,,,,,,,,,,,,,,,,,,,,,,,,,,,147.79356929194182,,,,,,,,,,,,,,,,,,,,,,,,,,,,,,,,,,,,,,,,,,,,,,,,,,,,,,,,,,,147.78074324992485,147.79356929194182,149.79355754191056,149.77984766685404,,,,,,,,,,,,,,,,,,,,,,,,,,,,,,,,,,,,,,,,,172881,001,2023-11-13_15h53.54.354,main,2023.2.3,None,2023-11-13 15h54.04.856473 -0500,
6,20,21,-28,,,,,,,,,,,,,,,,,,,,,,,,,,,,,,,,,,0,3,3,0,,,,,,,,,,,,,,,,,,,,,,,,,,,,,149.79355754191056,,,,,,,,,,,,,,,,,,,,,,,,,,,,,,,,,,,,,,,,,,,,,,,,,,,,,,,,,,,149.78014866705053,149.79355754191056,151.79353104205802,151.77914462494664,,,,,,,,,,,,,,,,,,,,,,,,,,,,,,,,,,,,,,,,,172881,001,2023-11-13_15h53.54.354,main,2023.2.3,None,2023-11-13 15h54.04.856473 -0500,
8,640,3,-62,,,,,,,,,,,,,,,,,,,,,,,,,,,,,,,,,,0,4,4,1,,,,,,,,,,,,,,,,,,,,,,,,,,,,,151.79353104205802,,,,,,,,,,,,,,,,,,,,,,,,,,,,,,,,,,,,,,,,,,,,,,,,,,,,,,,,,,,151.7795501248911,151.79353104205802,153.7863574998919,153.77731624990702,,,,,,,,,,,,,,,,,,,,,,,,,,,,,,,,,,,,,,,,,172881,001,2023-11-13_15h53.54.354,main,2023.2.3,None,2023-11-13 15h54.04.856473 -0500,
98,170,77,-100,,,,,,,,,,,,,,,,,,,,,,,,,,,,,,,,,,0,5,5,3,,,,,,,,,,,,,,,,,,,,,,,,,,,,,153.7863574998919,,,,,,,,,,,,,,,,,,,,,,,,,,,,,,,,,,,,,,,,,,,,,,,,,,,,,,,,,,,153.77823987486772,153.79263449995779,155.7794726670254,155.7769703748636,,,,,,,,,,,,,,,,,,,,,,,,,,,,,,,,,,,,,,,,,172881,001,2023-11-13_15h53.54.354,main,2023.2.3,None,2023-11-13 15h54.04.856473 -0500,
,,,,,,,,,,,,,,,,,,,,,,,,,,,,,,,,,,,,,,,,,,,,,,,,,,,,,,,,,,,,,,,,,,,,,,,,,,,,,,,,,155.77705637505278,155.7959898330737,155.7959898330737,158.39386066701263,space,2.588362667011097,None,,,,,,,,,,,,,,,,,,,,,,,,,,,,,,,,,,,,,,,,,,,,,,,,,,,,,,,,,,,,,,,,,,,,,,,,,,,,,,,,,,,,,172881,001,2023-11-13_15h53.54.354,main,2023.2.3,None,2023-11-13 15h54.04.856473 -0500,
"42, 88, 20","180, 60, 50","463, 515, 119","-30, -61, -122",1,,,,,,,,,,,,,,,,,,,,,,,,,,,,,,,,,,,,,0,0,0,5,,,,,,,,,,,,,,,,,,,,,,,,,158.41415483294986,,,,,,,,,,,,,,,,,,,,,,,,,,,,,,,,,,,,,,,,,,,,,,,,,,,,,,,,,,,,,,,158.40234112506732,158.41415483294986,158.41415483294986,159.25961554190144,right,0.831434499938041,None,,,,,,,,,,,,,,,,,,,,,,,,,,,,,,,,,,172881,001,2023-11-13_15h53.54.354,main,2023.2.3,None,2023-11-13 15h54.04.856473 -0500,
"287,53,49","71, 24, 603","86, 150, 140","248, 9, 139",0,,,,,,,,,,,,,,,,,,,,,,,,,,,,,,,,,,,,,0,1,1,4,,,,,,,,,,,,,,,,,,,,,,,,,159.26425133296289,,,,,,,,,,,,,,,,,,,,,,,,,,,,,,,,,,,,,,,,,,,,,,,,,,,,,,,,,,,,,,,159.2600181249436,159.26425133296289,159.26425133296289,160.19296774989925,left,0.9270452498458326,None,,,,,,,,,,,,,,,,,,,,,,,,,,,,,,,,,,172881,001,2023-11-13_15h53.54.354,main,2023.2.3,None,2023-11-13 15h54.04.856473 -0500,
"400, 76, 14","120, 270, 20","25, 87, 119","-16, -40, -27",1,,,,,,,,,,,,,,,,,,,,,,,,,,,,,,,,,,,,,0,2,2,3,,,,,,,,,,,,,,,,,,,,,,,,,160.19678454194218,,,,,,,,,,,,,,,,,,,,,,,,,,,,,,,,,,,,,,,,,,,,,,,,,,,,,,,,,,,,,,,160.1932422919199,160.19678454194218,160.19678454194218,161.14340654201806,right,0.9388746249023825,None,,,,,,,,,,,,,,,,,,,,,,,,,,,,,,,,,,172881,001,2023-11-13_15h53.54.354,main,2023.2.3,None,2023-11-13 15h54.04.856473 -0500,
"222, 50, 90","280, 20, 170","583, 261, 513","-160, -50, -266",1,,,,,,,,,,,,,,,,,,,,,,,,,,,,,,,,,,,,,0,3,3,2,,,,,,,,,,,,,,,,,,,,,,,,,161.1520027499646,,,,,,,,,,,,,,,,,,,,,,,,,,,,,,,,,,,,,,,,,,,,,,,,,,,,,,,,,,,,,,,161.14396716700867,161.1520027499646,161.1520027499646,163.06043529207818,right,1.9039527499116957,None,,,,,,,,,,,,,,,,,,,,,,,,,,,,,,,,,,172881,001,2023-11-13_15h53.54.354,main,2023.2.3,None,2023-11-13 15h54.04.856473 -0500,
"221,63,111","22, 44, 509","162, 70, 118","219, 288, 39",0,,,,,,,,,,,,,,,,,,,,,,,,,,,,,,,,,,,,,0,4,4,0,,,,,,,,,,,,,,,,,,,,,,,,,163.07040241686627,,,,,,,,,,,,,,,,,,,,,,,,,,,,,,,,,,,,,,,,,,,,,,,,,,,,,,,,,,,,,,,163.06104958290234,163.07040241686627,163.07040241686627,163.94383791694418,left,0.871577083831653,None,,,,,,,,,,,,,,,,,,,,,,,,,,,,,,,,,,172881,001,2023-11-13_15h53.54.354,main,2023.2.3,None,2023-11-13 15h54.04.856473 -0500,
"189, 77, 95","66, 138, 284","154, 166, 92","261, 67, 45",0,,,,,,,,,,,,,,,,,,,,,,,,,,,,,,,,,,,,,0,5,5,1,,,,,,,,,,,,,,,,,,,,,,,,,163.95326499990188,,,,,,,,,,,,,,,,,,,,,,,,,,,,,,,,,,,,,,,,,,,,,,,,,,,,,,,,,,,,,,,163.94445941690356,163.95326499990188,163.95326499990188,164.8625327500049,left,0.8972136250231415,None,,,,,,,,,,,,,,,,,,,,,,,,,,,,,,,,,,172881,001,2023-11-13_15h53.54.354,main,2023.2.3,None,2023-11-13 15h54.04.856473 -0500,
,,,,,,,,,,,,,,,,,,,,,,,,,,,,,,,,,,,,,,,,,,,,,,,,,,,,,,,,,,,,,,,,,,,,,,,164.862933000084,164.8789631249383,164.8789631249383,165.88035258301534,space,0.9952895841561258,None,,,,,,,,,,,,,,,,,,,,,,,,,,,,,,,,,,,,,,,,,,,,,,,,,,,,,,,,,,,,,,,,,,,,,,,,,,,,,,,,,,,,,,,,,,,,,,,172881,001,2023-11-13_15h53.54.354,main,2023.2.3,None,2023-11-13 15h54.04.856473 -0500,
98,170,77,-100,,,,,,,,,,,,,,,,,,,,,,,,,,,,,,,,,,,,,,,,,,0,0,0,3,,,,,,,,,,,,,,,,,,,,,165.89269537501968,,,,,,,,,,,,,,,,,,,,,,,,,,,,,,,,,,,,,,,,,,,,,,,,,,,,,,,,,,,,,,,,,,,,,,165.8843182499986,165.89269537501968,167.879881874891,167.8762268749997,,,,,,,,,,,,,,,,,,,,,,,,,,,,,,172881,001,2023-11-13_15h53.54.354,main,2023.2.3,None,2023-11-13 15h54.04.856473 -0500,
12,260,51,-111,,,,,,,,,,,,,,,,,,,,,,,,,,,,,,,,,,,,,,,,,,0,1,1,2,,,,,,,,,,,,,,,,,,,,,167.879881874891,,,,,,,,,,,,,,,,,,,,,,,,,,,,,,,,,,,,,,,,,,,,,,,,,,,,,,,,,,,,,,,,,,,,,,167.8764217500575,167.879881874891,169.88410145789385,169.87680737487972,,,,,,,,,,,,,,,,,,,,,,,,,,,,,,172881,001,2023-11-13_15h53.54.354,main,2023.2.3,None,2023-11-13 15h54.04.856473 -0500,
6,20,21,-28,,,,,,,,,,,,,,,,,,,,,,,,,,,,,,,,,,,,,,,,,,0,2,2,0,,,,,,,,,,,,,,,,,,,,,169.88410145789385,,,,,,,,,,,,,,,,,,,,,,,,,,,,,,,,,,,,,,,,,,,,,,,,,,,,,,,,,,,,,,,,,,,,,,169.87717354204506,169.88410145789385,171.89337216690183,171.87943958304822,,,,,,,,,,,,,,,,,,,,,,,,,,,,,,172881,001,2023-11-13_15h53.54.354,main,2023.2.3,None,2023-11-13 15h54.04.856473 -0500,
8,640,3,-62,,,,,,,,,,,,,,,,,,,,,,,,,,,,,,,,,,,,,,,,,,0,3,3,1,,,,,,,,,,,,,,,,,,,,,171.89337216690183,,,,,,,,,,,,,,,,,,,,,,,,,,,,,,,,,,,,,,,,,,,,,,,,,,,,,,,,,,,,,,,,,,,,,,171.8801669999957,171.89337216690183,173.8926877079066,173.880008792039,,,,,,,,,,,,,,,,,,,,,,,,,,,,,,172881,001,2023-11-13_15h53.54.354,main,2023.2.3,None,2023-11-13 15h54.04.856473 -0500,
40,30,91,-3,,,,,,,,,,,,,,,,,,,,,,,,,,,,,,,,,,,,,,,,,,0,4,4,4,,,,,,,,,,,,,,,,,,,,,173.8926877079066,,,,,,,,,,,,,,,,,,,,,,,,,,,,,,,,,,,,,,,,,,,,,,,,,,,,,,,,,,,,,,,,,,,,,,173.8807762078941,173.8926877079066,175.88985841698013,175.87751212506555,,,,,,,,,,,,,,,,,,,,,,,,,,,,,,172881,001,2023-11-13_15h53.54.354,main,2023.2.3,None,2023-11-13 15h54.04.856473 -0500,
4,80,33,-4,,,,,,,,,,,,,,,,,,,,,,,,,,,,,,,,,,,,,,,,,,0,5,5,5,,,,,,,,,,,,,,,,,,,,,175.88985841698013,,,,,,,,,,,,,,,,,,,,,,,,,,,,,,,,,,,,,,,,,,,,,,,,,,,,,,,,,,,,,,,,,,,,,,175.8783057918772,175.88985841698013,177.89328345796093,177.87840437493287,,,,,,,,,,,,,,,,,,,,,,,,,,,,,,172881,001,2023-11-13_15h53.54.354,main,2023.2.3,None,2023-11-13 15h54.04.856473 -0500,
,,,,,,,,,,,,,,,,,,,,,,,,,,,,,,,,,,,,,,,,,,,,,,,,,,,,,,,,,,,,,,,,,,,,,,,,,,,,,,,,,177.87847424997017,177.89328345796093,177.89328345796093,178.79387499997392,space,0.8934061250183731,None,,,,,,,,,,,,,,,,,,,,,,,,,,,,,,,,,,,,,,,,,,,,,,,,,,,,,,,,,,,,,,,,,,,,,,,,,,,,,,,,,,,,,172881,001,2023-11-13_15h53.54.354,main,2023.2.3,None,2023-11-13 15h54.04.856473 -0500,
"221,63,111","22, 44, 509","162, 70, 118","219, 288, 39",0,,,,,,,,,,,,,,,,,,,,,,,,,,,,,,,,,,,,,,,,,,,,,0,0,0,0,,,,,,,,,,,,,,,,,178.8130980420392,,,,,,,,,,,,,,,,,,,,,,,,,,,,,,,,,,,,,,,,,,,,,,,,,,,,,,,,,,,,,,,,,,,,,,,,,,178.80105424998328,178.8130980420392,178.8130980420392,179.49639983288944,left,0.6770685839001089,None,,,,,,,,,,,,,,,,,,,,,,,172881,001,2023-11-13_15h53.54.354,main,2023.2.3,None,2023-11-13 15h54.04.856473 -0500,
"189, 77, 95","66, 138, 284","154, 166, 92","261, 67, 45",0,,,,,,,,,,,,,,,,,,,,,,,,,,,,,,,,,,,,,,,,,,,,,0,1,1,1,,,,,,,,,,,,,,,,,179.51002712501213,,,,,,,,,,,,,,,,,,,,,,,,,,,,,,,,,,,,,,,,,,,,,,,,,,,,,,,,,,,,,,,,,,,,,,,,,,179.49739095801488,179.51002712501213,179.51002712501213,180.07620675000362,left,0.5633325420785695,None,,,,,,,,,,,,,,,,,,,,,,,172881,001,2023-11-13_15h53.54.354,main,2023.2.3,None,2023-11-13 15h54.04.856473 -0500,
"287,53,49","71, 24, 603","86, 150, 140","248, 9, 139",0,,,,,,,,,,,,,,,,,,,,,,,,,,,,,,,,,,,,,,,,,,,,,0,2,2,4,,,,,,,,,,,,,,,,,180.0809693329502,,,,,,,,,,,,,,,,,,,,,,,,,,,,,,,,,,,,,,,,,,,,,,,,,,,,,,,,,,,,,,,,,,,,,,,,,,180.0765005829744,180.0809693329502,180.0809693329502,180.77854850003496,left,0.696750917006284,None,,,,,,,,,,,,,,,,,,,,,,,172881,001,2023-11-13_15h53.54.354,main,2023.2.3,None,2023-11-13 15h54.04.856473 -0500,
"42, 88, 20","180, 60, 50","463, 515, 119","-30, -61, -122",1,,,,,,,,,,,,,,,,,,,,,,,,,,,,,,,,,,,,,,,,,,,,,0,3,3,5,,,,,,,,,,,,,,,,,180.79278458305635,,,,,,,,,,,,,,,,,,,,,,,,,,,,,,,,,,,,,,,,,,,,,,,,,,,,,,,,,,,,,,,,,,,,,,,,,,180.7788446669001,180.79278458305635,180.79278458305635,181.39283841685392,right,0.5901410840451717,None,,,,,,,,,,,,,,,,,,,,,,,172881,001,2023-11-13_15h53.54.354,main,2023.2.3,None,2023-11-13 15h54.04.856473 -0500,
"400, 76, 14","120, 270, 20","25, 87, 119","-16, -40, -27",1,,,,,,,,,,,,,,,,,,,,,,,,,,,,,,,,,,,,,,,,,,,,,0,4,4,3,,,,,,,,,,,,,,,,,181.4438360000495,,,,,,,,,,,,,,,,,,,,,,,,,,,,,,,,,,,,,,,,,,,,,,,,,,,,,,,,,,,,,,,,,,,,,,,,,,181.39314424991608,181.4438360000495,181.4438360000495,181.9601795419585,right,0.512537500122562,None,,,,,,,,,,,,,,,,,,,,,,,172881,001,2023-11-13_15h53.54.354,main,2023.2.3,None,2023-11-13 15h54.04.856473 -0500,
"222, 50, 90","280, 20, 170","583, 261, 513","-160, -50, -266",1,,,,,,,,,,,,,,,,,,,,,,,,,,,,,,,,,,,,,,,,,,,,,0,5,5,2,,,,,,,,,,,,,,,,,181.96976300003007,,,,,,,,,,,,,,,,,,,,,,,,,,,,,,,,,,,,,,,,,,,,,,,,,,,,,,,,,,,,,,,,,,,,,,,,,,181.96080262493342,181.96976300003007,181.96976300003007,182.6465673749335,right,0.6668019171338528,None,,,,,,,,,,,,,,,,,,,,,,,172881,001,2023-11-13_15h53.54.354,main,2023.2.3,None,2023-11-13 15h54.04.856473 -0500,
,,,,,,,,,,,,,,,,,,,,,,,,,,,,,,,,,,,,,,,,,,,,,,,,,,,,,,,,,,,,,,,,,,,,,,,182.64739870792255,182.6601157078985,182.6601157078985,183.56027254206128,space,0.8925040839239955,None,,,,,,,,,,,,,,,,,,,,,,,,,,,,,,,,,,,,,,,,,,,,,,,,,,,,,,,,,,,,,,,,,,,,,,,,,,,,,,,,,,,,,,,,,,,,,,,172881,001,2023-11-13_15h53.54.354,main,2023.2.3,None,2023-11-13 15h54.04.856473 -0500,
12,260,51,-111,,,,,,,,,,,,,,,,,,,,,,,,,,,,,,,,,,,,,,,,,,,,,,,,,,0,0,0,2,,,,,,,,,,,,,183.5783608329948,,,,,,,,,,,,,,,,,,,,,,,,,,,,,,,,,,,,,,,,,,,,,,,,,,,,,,,,,,,,,,,,,,,,,,,,,,,,,,,,,183.56694612489082,183.5783608329948,185.5616279579699,,,,,,,,,,,,,,,,,,,,172881,001,2023-11-13_15h53.54.354,main,2023.2.3,None,2023-11-13 15h54.04.856473 -0500,
40,30,91,-3,,,,,,,,,,,,,,,,,,,,,,,,,,,,,,,,,,,,,,,,,,,,,,,,,,0,1,1,4,,,,,,,,,,,,,185.57604841701686,,,,,,,,,,,,,,,,,,,,,,,,,,,,,,,,,,,,,,,,,,,,,,,,,,,,,,,,,,,,,,,,,,,,,,,,,,,,,,,,,185.56181316706352,185.57604841701686,187.56291933287866,,,,,,,,,,,,,,,,,,,,172881,001,2023-11-13_15h53.54.354,main,2023.2.3,None,2023-11-13 15h54.04.856473 -0500,
98,170,77,-100,,,,,,,,,,,,,,,,,,,,,,,,,,,,,,,,,,,,,,,,,,,,,,,,,,0,2,2,3,,,,,,,,,,,,,187.5766625420656,,,,,,,,,,,,,,,,,,,,,,,,,,,,,,,,,,,,,,,,,,,,,,,,,,,,,,,,,,,,,,,,,,,,,,,,,,,,,,,,,187.56361920805648,187.5766625420656,189.56248799990863,,,,,,,,,,,,,,,,,,,,172881,001,2023-11-13_15h53.54.354,main,2023.2.3,None,2023-11-13 15h54.04.856473 -0500,
8,640,3,-62,,,,,,,,,,,,,,,,,,,,,,,,,,,,,,,,,,,,,,,,,,,,,,,,,,0,3,3,1,,,,,,,,,,,,,189.5768021249678,,,,,,,,,,,,,,,,,,,,,,,,,,,,,,,,,,,,,,,,,,,,,,,,,,,,,,,,,,,,,,,,,,,,,,,,,,,,,,,,,189.5630219168961,189.5768021249678,191.56202412489802,,,,,,,,,,,,,,,,,,,,172881,001,2023-11-13_15h53.54.354,main,2023.2.3,None,2023-11-13 15h54.04.856473 -0500,
4,80,33,-4,,,,,,,,,,,,,,,,,,,,,,,,,,,,,,,,,,,,,,,,,,,,,,,,,,0,4,4,5,,,,,,,,,,,,,191.57657491695136,,,,,,,,,,,,,,,,,,,,,,,,,,,,,,,,,,,,,,,,,,,,,,,,,,,,,,,,,,,,,,,,,,,,,,,,,,,,,,,,,191.56241062493064,191.57657491695136,193.56181258289143,,,,,,,,,,,,,,,,,,,,172881,001,2023-11-13_15h53.54.354,main,2023.2.3,None,2023-11-13 15h54.04.856473 -0500,
6,20,21,-28,,,,,,,,,,,,,,,,,,,,,,,,,,,,,,,,,,,,,,,,,,,,,,,,,,0,5,5,0,,,,,,,,,,,,,193.57667375006713,,,,,,,,,,,,,,,,,,,,,,,,,,,,,,,,,,,,,,,,,,,,,,,,,,,,,,,,,,,,,,,,,,,,,,,,,,,,,,,,,193.5622434578836,193.57667375006713,195.56012699985877,195.56428349995986,,,,,,,,,,,,,,,,,,,172881,001,2023-11-13_15h53.54.354,main,2023.2.3,None,2023-11-13 15h54.04.856473 -0500,
,,,,,,,,,,,,,,,,,,,,,,,,,,,,,,,,,,,,,,,,,,,,,,,,,,,,,,,,,,,,,,,,,,,,,,,,,,,,,,,,,195.5602211249061,195.56428349995986,195.56428349995986,199.56027012504637,space,3.982301084091887,None,,,,,,,,,,,,,,,,,,,,,,,,,,,,,,,,,,,,,,,,,,,,,,,,,,,,,,,,,,,,,,,,,,,,,,,,,,,,,,,,,,,,,172881,001,2023-11-13_15h53.54.354,main,2023.2.3,None,2023-11-13 15h54.04.856473 -0500,
"222, 50, 90","280, 20, 170","583, 261, 513","-160, -50, -266",1,,,,,,,,,,,,,,,,,,,,,,,,,,,,,,,,,,,,,,,,,,,,,,,,,,,,,0,0,0,2,,,,,,,,,199.5801081249956,,,,,,,,,,,,,,,,,,,,,,,,,,,,,,,,,,,,,,,,,,,,,,,,,,,,,,,,,,,,,,,,,,,,,,,,,,,,,,,,,,,,,199.56842887494713,199.5801081249956,199.5801081249956,200.85966487508267,right,1.2696459169965237,None,,,,,,,,,,,,172881,001,2023-11-13_15h53.54.354,main,2023.2.3,None,2023-11-13 15h54.04.856473 -0500,
"189, 77, 95","66, 138, 284","154, 166, 92","261, 67, 45",0,,,,,,,,,,,,,,,,,,,,,,,,,,,,,,,,,,,,,,,,,,,,,,,,,,,,,0,1,1,1,,,,,,,,,200.8642137919087,,,,,,,,,,,,,,,,,,,,,,,,,,,,,,,,,,,,,,,,,,,,,,,,,,,,,,,,,,,,,,,,,,,,,,,,,,,,,,,,,,,,,200.86003312491812,200.8642137919087,200.8642137919087,201.90935899992473,left,1.0374582498334348,None,,,,,,,,,,,,172881,001,2023-11-13_15h53.54.354,main,2023.2.3,None,2023-11-13 15h54.04.856473 -0500,
"287,53,49","71, 24, 603","86, 150, 140","248, 9, 139",0,,,,,,,,,,,,,,,,,,,,,,,,,,,,,,,,,,,,,,,,,,,,,,,,,,,,,0,2,2,4,,,,,,,,,201.91400925000198,,,,,,,,,,,,,,,,,,,,,,,,,,,,,,,,,,,,,,,,,,,,,,,,,,,,,,,,,,,,,,,,,,,,,,,,,,,,,,,,,,,,,201.9096641249489,201.91400925000198,201.91400925000198,202.78044287487864,left,0.8629594589583576,None,,,,,,,,,,,,172881,001,2023-11-13_15h53.54.354,main,2023.2.3,None,2023-11-13 15h54.04.856473 -0500,
"400, 76, 14","120, 270, 20","25, 87, 119","-16, -40, -27",1,,,,,,,,,,,,,,,,,,,,,,,,,,,,,,,,,,,,,,,,,,,,,,,,,,,,,0,3,3,3,,,,,,,,,202.792400208069,,,,,,,,,,,,,,,,,,,,,,,,,,,,,,,,,,,,,,,,,,,,,,,,,,,,,,,,,,,,,,,,,,,,,,,,,,,,,,,,,,,,,202.78107091691345,202.792400208069,202.792400208069,203.9121154169552,right,1.1107754590921104,None,,,,,,,,,,,,172881,001,2023-11-13_15h53.54.354,main,2023.2.3,None,2023-11-13 15h54.04.856473 -0500,
"221,63,111","22, 44, 509","162, 70, 118","219, 288, 39",0,,,,,,,,,,,,,,,,,,,,,,,,,,,,,,,,,,,,,,,,,,,,,,,,,,,,,0,4,4,0,,,,,,,,,203.9267345420085,,,,,,,,,,,,,,,,,,,,,,,,,,,,,,,,,,,,,,,,,,,,,,,,,,,,,,,,,,,,,,,,,,,,,,,,,,,,,,,,,,,,,203.91271962504834,203.9267345420085,203.9267345420085,204.9297972919885,left,0.9961001249030232,None,,,,,,,,,,,,172881,001,2023-11-13_15h53.54.354,main,2023.2.3,None,2023-11-13 15h54.04.856473 -0500,
"42, 88, 20","180, 60, 50","463, 515, 119","-30, -61, -122",1,,,,,,,,,,,,,,,,,,,,,,,,,,,,,,,,,,,,,,,,,,,,,,,,,,,,,0,5,5,5,,,,,,,,,204.94285312504508,,,,,,,,,,,,,,,,,,,,,,,,,,,,,,,,,,,,,,,,,,,,,,,,,,,,,,,,,,,,,,,,,,,,,,,,,,,,,,,,,,,,,204.93024445790797,204.94285312504508,204.94285312504508,206.01467716693878,right,1.0656578340567648,None,,,,,,,,,,,,172881,001,2023-11-13_15h53.54.354,main,2023.2.3,None,2023-11-13 15h54.04.856473 -0500,
,,,,,,,,,,,,,,,,,,,,,,,,,,,,,,,,,,,,,,,,,,,,,,,,,,,,,,,,,,,,,,,,,,,,,,,206.01506962487474,206.02657941705547,206.02657941705547,207.0643549580127,space,1.0319107498507947,None,,,,,,,,,,,,,,,,,,,,,,,,,,,,,,,,,,,,,,,,,,,,,,,,,,,,,,,,,,,,,,,,,,,,,,,,,,,,,,,,,,,,,,,,,,,,,,,172881,001,2023-11-13_15h53.54.354,main,2023.2.3,None,2023-11-13 15h54.04.856473 -0500,
12,260,51,-111,,,,,,,,,,,,,,,,,,,,,,,,,,,,,,,,,,,,,,,,,,,,,,,,,,,,,,,,,,0,0,0,2,,,,,207.07899429206736,,,,,,,,,,,,,,,,,,,,,,,,,,,,,,,,,,,,,,,,,,,,,,,,,,,,,,,,,,,,,,,,,,,,,,,,,,,,,,,,,,,,,,,,,,,,207.06894083297811,207.07899429206736,209.0759155829437,209.06158083304763,,,,,,,,172881,001,2023-11-13_15h53.54.354,main,2023.2.3,None,2023-11-13 15h54.04.856473 -0500,
6,20,21,-28,,,,,,,,,,,,,,,,,,,,,,,,,,,,,,,,,,,,,,,,,,,,,,,,,,,,,,,,,,0,1,1,0,,,,,209.0759155829437,,,,,,,,,,,,,,,,,,,,,,,,,,,,,,,,,,,,,,,,,,,,,,,,,,,,,,,,,,,,,,,,,,,,,,,,,,,,,,,,,,,,,,,,,,,,209.0617696249392,209.0759155829437,211.07657516701147,211.06186558306217,,,,,,,,172881,001,2023-11-13_15h53.54.354,main,2023.2.3,None,2023-11-13 15h54.04.856473 -0500,
98,170,77,-100,,,,,,,,,,,,,,,,,,,,,,,,,,,,,,,,,,,,,,,,,,,,,,,,,,,,,,,,,,0,2,2,3,,,,,211.07657516701147,,,,,,,,,,,,,,,,,,,,,,,,,,,,,,,,,,,,,,,,,,,,,,,,,,,,,,,,,,,,,,,,,,,,,,,,,,,,,,,,,,,,,,,,,,,,211.06231141695753,211.07657516701147,213.07657512486912,213.063454041956,,,,,,,,172881,001,2023-11-13_15h53.54.354,main,2023.2.3,None,2023-11-13 15h54.04.856473 -0500,
4,80,33,-4,,,,,,,,,,,,,,,,,,,,,,,,,,,,,,,,,,,,,,,,,,,,,,,,,,,,,,,,,,0,3,3,5,,,,,213.07657512486912,,,,,,,,,,,,,,,,,,,,,,,,,,,,,,,,,,,,,,,,,,,,,,,,,,,,,,,,,,,,,,,,,,,,,,,,,,,,,,,,,,,,,,,,,,,,213.064229457872,213.07657512486912,215.0765737919137,215.0626187499147,,,,,,,,172881,001,2023-11-13_15h53.54.354,main,2023.2.3,None,2023-11-13 15h54.04.856473 -0500,
40,30,91,-3,,,,,,,,,,,,,,,,,,,,,,,,,,,,,,,,,,,,,,,,,,,,,,,,,,,,,,,,,,0,4,4,4,,,,,215.0765737919137,,,,,,,,,,,,,,,,,,,,,,,,,,,,,,,,,,,,,,,,,,,,,,,,,,,,,,,,,,,,,,,,,,,,,,,,,,,,,,,,,,,,,,,,,,,,215.063313791994,215.0765737919137,217.0765341669321,217.06341099995188,,,,,,,,172881,001,2023-11-13_15h53.54.354,main,2023.2.3,None,2023-11-13 15h54.04.856473 -0500,
8,640,3,-62,,,,,,,,,,,,,,,,,,,,,,,,,,,,,,,,,,,,,,,,,,,,,,,,,,,,,,,,,,0,5,5,1,,,,,217.0765341669321,,,,,,,,,,,,,,,,,,,,,,,,,,,,,,,,,,,,,,,,,,,,,,,,,,,,,,,,,,,,,,,,,,,,,,,,,,,,,,,,,,,,,,,,,,,,217.06389970798045,217.0765341669321,219.06550970789976,219.0618010419421,,,,,,,,172881,001,2023-11-13_15h53.54.354,main,2023.2.3,None,2023-11-13 15h54.04.856473 -0500,
,,,,,,,,,,,,,,,,,,,,,,,,,,,,,,,,,,,,,,,,,,,,,,,,,,,,,,,,,,,,,,,,,,,,,,,,,,,,,,,,,219.06186999985948,219.06550970789976,219.06550970789976,221.0102302080486,space,1.9399032921064645,None,,,,,,,,,,,,,,,,,,,,,,,,,,,,,,,,,,,,,,,,,,,,,,,,,,,,,,,,,,,,,,,,,,,,,,,,,,,,,,,,,,,,,172881,001,2023-11-13_15h53.54.354,main,2023.2.3,None,2023-11-13 15h54.04.856473 -0500,
"42, 88, 20","180, 60, 50","463, 515, 119","-30, -61, -122",1,,,,,,,,,,,,,,,,,,,,,,,,,,,,,,,,,,,,,,,,,,,,,,,,,,,,,,,,,,,,,0,0,0,5,221.02968295803294,,,,,,,,,,,,,,,,,,,,,,,,,,,,,,,,,,,,,,,,,,,,,,,,,,,,,,,,,,,,,,,,,,,,,,,,,,,,,,,,,,,,,,,,,,,,,,,,221.01731920801103,221.02968295803294,221.02968295803294,221.5092912078835,right,0.47748525091446936,None,172881,001,2023-11-13_15h53.54.354,main,2023.2.3,None,2023-11-13 15h54.04.856473 -0500,
"222, 50, 90","280, 20, 170","583, 261, 513","-160, -50, -266",1,,,,,,,,,,,,,,,,,,,,,,,,,,,,,,,,,,,,,,,,,,,,,,,,,,,,,,,,,,,,,0,1,1,2,221.51407229201868,,,,,,,,,,,,,,,,,,,,,,,,,,,,,,,,,,,,,,,,,,,,,,,,,,,,,,,,,,,,,,,,,,,,,,,,,,,,,,,,,,,,,,,,,,,,,,,,221.5096894998569,221.51407229201868,221.51407229201868,222.14510120800696,right,0.6294897499028593,None,172881,001,2023-11-13_15h53.54.354,main,2023.2.3,None,2023-11-13 15h54.04.856473 -0500,
"189, 77, 95","66, 138, 284","154, 166, 92","261, 67, 45",0,,,,,,,,,,,,,,,,,,,,,,,,,,,,,,,,,,,,,,,,,,,,,,,,,,,,,,,,,,,,,0,2,2,1,222.15917550004087,,,,,,,,,,,,,,,,,,,,,,,,,,,,,,,,,,,,,,,,,,,,,,,,,,,,,,,,,,,,,,,,,,,,,,,,,,,,,,,,,,,,,,,,,,,,,,,,222.1454043330159,222.15917550004087,222.15917550004087,222.60929245804437,left,0.4473045840859413,None,172881,001,2023-11-13_15h53.54.354,main,2023.2.3,None,2023-11-13 15h54.04.856473 -0500,
"287,53,49","71, 24, 603","86, 150, 140","248, 9, 139",0,,,,,,,,,,,,,,,,,,,,,,,,,,,,,,,,,,,,,,,,,,,,,,,,,,,,,,,,,,,,,0,3,3,4,222.61442079185508,,,,,,,,,,,,,,,,,,,,,,,,,,,,,,,,,,,,,,,,,,,,,,,,,,,,,,,,,,,,,,,,,,,,,,,,,,,,,,,,,,,,,,,,,,,,,,,,222.60959808295593,222.61442079185508,222.61442079185508,223.34333466691896,left,0.7270630840212107,None,172881,001,2023-11-13_15h53.54.354,main,2023.2.3,None,2023-11-13 15h54.04.856473 -0500,
"221,63,111","22, 44, 509","162, 70, 118","219, 288, 39",0,,,,,,,,,,,,,,,,,,,,,,,,,,,,,,,,,,,,,,,,,,,,,,,,,,,,,,,,,,,,,0,4,4,0,223.35178508306853,,,,,,,,,,,,,,,,,,,,,,,,,,,,,,,,,,,,,,,,,,,,,,,,,,,,,,,,,,,,,,,,,,,,,,,,,,,,,,,,,,,,,,,,,,,,,,,,223.34382658288814,223.35178508306853,223.35178508306853,223.87674574996345,left,0.513419667026028,None,172881,001,2023-11-13_15h53.54.354,main,2023.2.3,None,2023-11-13 15h54.04.856473 -0500,
"400, 76, 14","120, 270, 20","25, 87, 119","-16, -40, -27",1,,,,,,,,,,,,,,,,,,,,,,,,,,,,,,,,,,,,,,,,,,,,,,,,,,,,,,,,,,,,,0,5,5,3,223.88773462502286,,,,,,,,,,,,,,,,,,,,,,,,,,,,,,,,,,,,,,,,,,,,,,,,,,,,,,,,,,,,,,,,,,,,,,,,,,,,,,,,,,,,,,,,,,,,,,,,223.87733633304015,223.88773462502286,223.88773462502286,224.29658545786515,right,0.3955378329847008,None,172881,001,2023-11-13_15h53.54.354,main,2023.2.3,None,2023-11-13 15h54.04.856473 -0500,
