Even,Ten,Odd,Negative,Correct,trials.thisRepN,trials.thisTrialN,trials.thisN,trials.thisIndex,trials_2.thisRepN,trials_2.thisTrialN,trials_2.thisN,trials_2.thisIndex,trials_3.thisRepN,trials_3.thisTrialN,trials_3.thisN,trials_3.thisIndex,trials_4.thisRepN,trials_4.thisTrialN,trials_4.thisN,trials_4.thisIndex,trials_5.thisRepN,trials_5.thisTrialN,trials_5.thisN,trials_5.thisIndex,trials_6.thisRepN,trials_6.thisTrialN,trials_6.thisN,trials_6.thisIndex,trials_7.thisRepN,trials_7.thisTrialN,trials_7.thisN,trials_7.thisIndex,trials_8.thisRepN,trials_8.thisTrialN,trials_8.thisN,trials_8.thisIndex,trials_9.thisRepN,trials_9.thisTrialN,trials_9.thisN,trials_9.thisIndex,trials_10.thisRepN,trials_10.thisTrialN,trials_10.thisN,trials_10.thisIndex,trials_11.thisRepN,trials_11.thisTrialN,trials_11.thisN,trials_11.thisIndex,trials_12.thisRepN,trials_12.thisTrialN,trials_12.thisN,trials_12.thisIndex,trials_13.thisRepN,trials_13.thisTrialN,trials_13.thisN,trials_13.thisIndex,trials_14.thisRepN,trials_14.thisTrialN,trials_14.thisN,trials_14.thisIndex,trials_15.thisRepN,trials_15.thisTrialN,trials_15.thisN,trials_15.thisIndex,trials_16.thisRepN,trials_16.thisTrialN,trials_16.thisN,trials_16.thisIndex,thisRow.t,notes,starttrain.started,key_resp.started,text.started,starttrain.stopped,key_resp.keys,key_resp.rt,key_resp.duration,Even_Train.started,text_2.started,Even_Train.stopped,text_2.stopped,starttest.started,text_4.started,key_resp_2.started,starttest.stopped,key_resp_2.keys,key_resp_2.rt,key_resp_2.duration,Even_Test.started,text_5.started,key_resp_3.started,Even_Test.stopped,key_resp_3.keys,key_resp_3.rt,key_resp_3.duration,Ten_Train.started,text_7.started,text_7.stopped,Ten_Train.stopped,Ten_Test.started,text_8.started,key_resp_4.started,Ten_Test.stopped,key_resp_4.keys,key_resp_4.rt,key_resp_4.duration,Odd_Train.started,text_3.started,Odd_Train.stopped,Odd_Test.started,text_9.started,key_resp_6.started,Odd_Test.stopped,key_resp_6.keys,key_resp_6.rt,key_resp_6.duration,Negative_Train.started,text_10.started,Negative_Train.stopped,text_10.stopped,Negative_Test.started,text_11.started,key_resp_7.started,Negative_Test.stopped,key_resp_7.keys,key_resp_7.rt,key_resp_7.duration,Even2.started,text_12.started,Even2.stopped,text_12.stopped,even2test.started,text_13.started,key_resp_8.started,even2test.stopped,key_resp_8.keys,key_resp_8.rt,key_resp_8.duration,ten2.started,text_14.started,ten2.stopped,text_14.stopped,ten2test.started,text_15.started,key_resp_9.started,ten2test.stopped,key_resp_9.keys,key_resp_9.rt,key_resp_9.duration,odd2.started,text_16.started,odd2.stopped,text_16.stopped,odd2test.started,text_17.started,key_resp_10.started,odd2test.stopped,key_resp_10.keys,key_resp_10.rt,key_resp_10.duration,neg2.started,text_18.started,neg2.stopped,text_18.stopped,neg2test.started,text_19.started,key_resp_11.started,neg2test.stopped,key_resp_11.keys,key_resp_11.rt,key_resp_11.duration,participant,session,date,expName,psychopyVersion,frameRate,expStart,
,,,,,,,,,,,,,,,,,,,,,,,,,,,,,,,,,,,,,,,,,,,,,,,,,,,,,,,,,,,,,,,,,,,,,,,0.008655417012050748,0.01436099992133677,0.01436099992133677,4.515600709011778,space,4.495959041872993,None,,,,,,,,,,,,,,,,,,,,,,,,,,,,,,,,,,,,,,,,,,,,,,,,,,,,,,,,,,,,,,,,,,,,,,,,,,,,,,,,,,,,,,,,,,,,,,,390989,001,2023-11-13_15h32.48.892,main,2023.2.3,None,2023-11-13 15h33.01.438496 -0500,
32,20,7,-44,,0,0,0,1,,,,,,,,,,,,,,,,,,,,,,,,,,,,,,,,,,,,,,,,,,,,,,,,,,,,,,,,,,,,,4.542645083973184,,,,,,,,,4.524541874881834,4.542645083973184,6.526875208830461,,,,,,,,,,,,,,,,,,,,,,,,,,,,,,,,,,,,,,,,,,,,,,,,,,,,,,,,,,,,,,,,,,,,,,,,,,,,,,,,,,,,,,,,,,,,390989,001,2023-11-13_15h32.48.892,main,2023.2.3,None,2023-11-13 15h33.01.438496 -0500,
2,40,95,-39,,0,1,1,0,,,,,,,,,,,,,,,,,,,,,,,,,,,,,,,,,,,,,,,,,,,,,,,,,,,,,,,,,,,,,6.530636916868389,,,,,,,,,6.527055667014793,6.530636916868389,8.514191875001416,8.527438584016636,,,,,,,,,,,,,,,,,,,,,,,,,,,,,,,,,,,,,,,,,,,,,,,,,,,,,,,,,,,,,,,,,,,,,,,,,,,,,,,,,,,,,,,,,,,390989,001,2023-11-13_15h32.48.892,main,2023.2.3,None,2023-11-13 15h33.01.438496 -0500,
136,220,55,-59,,0,2,2,3,,,,,,,,,,,,,,,,,,,,,,,,,,,,,,,,,,,,,,,,,,,,,,,,,,,,,,,,,,,,,8.527438584016636,,,,,,,,,8.514968708856031,8.527438584016636,10.51075941696763,10.516559124924242,,,,,,,,,,,,,,,,,,,,,,,,,,,,,,,,,,,,,,,,,,,,,,,,,,,,,,,,,,,,,,,,,,,,,,,,,,,,,,,,,,,,,,,,,,,390989,001,2023-11-13_15h32.48.892,main,2023.2.3,None,2023-11-13 15h33.01.438496 -0500,
12,60,39,-845,,0,3,3,2,,,,,,,,,,,,,,,,,,,,,,,,,,,,,,,,,,,,,,,,,,,,,,,,,,,,,,,,,,,,,10.516559124924242,,,,,,,,,10.511032624868676,10.516559124924242,12.51098395884037,12.515438583912328,,,,,,,,,,,,,,,,,,,,,,,,,,,,,,,,,,,,,,,,,,,,,,,,,,,,,,,,,,,,,,,,,,,,,,,,,,,,,,,,,,,,,,,,,,,390989,001,2023-11-13_15h32.48.892,main,2023.2.3,None,2023-11-13 15h33.01.438496 -0500,
,,,,,,,,,,,,,,,,,,,,,,,,,,,,,,,,,,,,,,,,,,,,,,,,,,,,,,,,,,,,,,,,,,,,,,,,,,,,,,,,,,12.511066959006712,12.515438583912328,12.515438583912328,17.284952834015712,space,4.7654347089119256,None,,,,,,,,,,,,,,,,,,,,,,,,,,,,,,,,,,,,,,,,,,,,,,,,,,,,,,,,,,,,,,,,,,,,,,,,,,,,,,,,,,,,390989,001,2023-11-13_15h32.48.892,main,2023.2.3,None,2023-11-13 15h33.01.438496 -0500,
"112, 216, 128","800, 900, 550","253, 173, 257","-65, -51, -27",1,,,,,0,0,0,3,,,,,,,,,,,,,,,,,,,,,,,,,,,,,,,,,,,,,,,,,,,,,,,,,,,,,,,,,17.31712112482637,,,,,,,,,,,,,,,,,,,,17.293410708894953,17.31712112482637,17.31712112482637,30.72777545894496,right,13.396710417000577,None,,,,,,,,,,,,,,,,,,,,,,,,,,,,,,,,,,,,,,,,,,,,,,,,,,,,,,,,,,,,,,,,,,,,,,,,,,,,,390989,001,2023-11-13_15h32.48.892,main,2023.2.3,None,2023-11-13 15h33.01.438496 -0500,
"41, 187, 53","272,295,67","6, 168, 34","64, 21, 165",0,,,,,0,1,1,0,,,,,,,,,,,,,,,,,,,,,,,,,,,,,,,,,,,,,,,,,,,,,,,,,,,,,,,,,30.762221166864038,,,,,,,,,,,,,,,,,,,,30.728676999919116,30.762221166864038,30.762221166864038,35.881695083808154,right,5.115701375994831,None,,,,,,,,,,,,,,,,,,,,,,,,,,,,,,,,,,,,,,,,,,,,,,,,,,,,,,,,,,,,,,,,,,,,,,,,,,,,,390989,001,2023-11-13_15h32.48.892,main,2023.2.3,None,2023-11-13 15h33.01.438496 -0500,
"122, 40, 18","270, 290, 60","465, 323, 97","-84, -100, -244",1,,,,,0,2,2,1,,,,,,,,,,,,,,,,,,,,,,,,,,,,,,,,,,,,,,,,,,,,,,,,,,,,,,,,,35.897131291916594,,,,,,,,,,,,,,,,,,,,35.8824177919887,35.897131291916594,35.897131291916594,39.78152462490834,right,3.8805764589924365,None,,,,,,,,,,,,,,,,,,,,,,,,,,,,,,,,,,,,,,,,,,,,,,,,,,,,,,,,,,,,,,,,,,,,,,,,,,,,,390989,001,2023-11-13_15h32.48.892,main,2023.2.3,None,2023-11-13 15h33.01.438496 -0500,
"313, 9, 33","21, 204, 155","2, 142, 48","264, 198, 211",0,,,,,0,3,3,4,,,,,,,,,,,,,,,,,,,,,,,,,,,,,,,,,,,,,,,,,,,,,,,,,,,,,,,,,39.79718316695653,,,,,,,,,,,,,,,,,,,,39.78213499998674,39.79718316695653,39.79718316695653,41.6146123749204,right,1.8164536249823868,None,,,,,,,,,,,,,,,,,,,,,,,,,,,,,,,,,,,,,,,,,,,,,,,,,,,,,,,,,,,,,,,,,,,,,,,,,,,,,390989,001,2023-11-13_15h32.48.892,main,2023.2.3,None,2023-11-13 15h33.01.438496 -0500,
"91, 299, 31","282, 401, 66","134, 72, 188","136, 169, 0",0,,,,,0,4,4,5,,,,,,,,,,,,,,,,,,,,,,,,,,,,,,,,,,,,,,,,,,,,,,,,,,,,,,,,,41.62651899992488,,,,,,,,,,,,,,,,,,,,41.61532012489624,41.62651899992488,41.62651899992488,42.910718749975786,right,1.2709382919128984,None,,,,,,,,,,,,,,,,,,,,,,,,,,,,,,,,,,,,,,,,,,,,,,,,,,,,,,,,,,,,,,,,,,,,,,,,,,,,,390989,001,2023-11-13_15h32.48.892,main,2023.2.3,None,2023-11-13 15h33.01.438496 -0500,
"10, 70, 56","20, 200, 160","97, 93, 3","-174, -9, -92",1,,,,,0,5,5,2,,,,,,,,,,,,,,,,,,,,,,,,,,,,,,,,,,,,,,,,,,,,,,,,,,,,,,,,,42.92093629180454,,,,,,,,,,,,,,,,,,,,42.911315749865025,42.92093629180454,42.92093629180454,43.911073583876714,right,0.9814817500300705,None,,,,,,,,,,,,,,,,,,,,,,,,,,,,,,,,,,,,,,,,,,,,,,,,,,,,,,,,,,,,,,,,,,,,,,,,,,,,,390989,001,2023-11-13_15h32.48.892,main,2023.2.3,None,2023-11-13 15h33.01.438496 -0500,
,,,,,,,,,,,,,,,,,,,,,,,,,,,,,,,,,,,,,,,,,,,,,,,,,,,,,,,,,,,,,,,,,,,,,,,43.9116822918877,43.918605458922684,43.918605458922684,47.9023972498253,space,3.9783107498660684,None,,,,,,,,,,,,,,,,,,,,,,,,,,,,,,,,,,,,,,,,,,,,,,,,,,,,,,,,,,,,,,,,,,,,,,,,,,,,,,,,,,,,,,,,,,,,,,,390989,001,2023-11-13_15h32.48.892,main,2023.2.3,None,2023-11-13 15h33.01.438496 -0500,
12,60,39,-845,,,,,,,,,,0,0,0,2,,,,,,,,,,,,,,,,,,,,,,,,,,,,,,,,,,,,,,,,,,,,,,,,,,,,,47.91363733401522,,,,,,,,,,,,,,,,,,,,,,,,,,,47.90632158401422,47.91363733401522,49.91046874993481,49.89680812484585,,,,,,,,,,,,,,,,,,,,,,,,,,,,,,,,,,,,,,,,,,,,,,,,,,,,,,,,,,,,,,,,,,,,,,,,,390989,001,2023-11-13_15h32.48.892,main,2023.2.3,None,2023-11-13 15h33.01.438496 -0500,
136,220,55,-59,,,,,,,,,,0,1,1,3,,,,,,,,,,,,,,,,,,,,,,,,,,,,,,,,,,,,,,,,,,,,,,,,,,,,,49.91046874993481,,,,,,,,,,,,,,,,,,,,,,,,,,,49.89702504198067,49.91046874993481,51.910265208920464,51.896448083920404,,,,,,,,,,,,,,,,,,,,,,,,,,,,,,,,,,,,,,,,,,,,,,,,,,,,,,,,,,,,,,,,,,,,,,,,,390989,001,2023-11-13_15h32.48.892,main,2023.2.3,None,2023-11-13 15h33.01.438496 -0500,
2,40,95,-39,,,,,,,,,,0,2,2,0,,,,,,,,,,,,,,,,,,,,,,,,,,,,,,,,,,,,,,,,,,,,,,,,,,,,,51.910265208920464,,,,,,,,,,,,,,,,,,,,,,,,,,,51.89715658384375,51.910265208920464,53.91065529198386,53.89608999993652,,,,,,,,,,,,,,,,,,,,,,,,,,,,,,,,,,,,,,,,,,,,,,,,,,,,,,,,,,,,,,,,,,,,,,,,,390989,001,2023-11-13_15h32.48.892,main,2023.2.3,None,2023-11-13 15h33.01.438496 -0500,
32,20,7,-44,,,,,,,,,,0,3,3,1,,,,,,,,,,,,,,,,,,,,,,,,,,,,,,,,,,,,,,,,,,,,,,,,,,,,,53.91065529198386,,,,,,,,,,,,,,,,,,,,,,,,,,,53.896798458881676,53.91065529198386,55.910654708975926,55.89681512489915,,,,,,,,,,,,,,,,,,,,,,,,,,,,,,,,,,,,,,,,,,,,,,,,,,,,,,,,,,,,,,,,,,,,,,,,,390989,001,2023-11-13_15h32.48.892,main,2023.2.3,None,2023-11-13 15h33.01.438496 -0500,
,,,,,,,,,,,,,,,,,,,,,,,,,,,,,,,,,,,,,,,,,,,,,,,,,,,,,,,,,,,,,,,,,,,,,,,,,,,,,,,,,,55.89698358392343,55.910654708975926,55.910654708975926,60.98223620885983,space,5.065265541896224,None,,,,,,,,,,,,,,,,,,,,,,,,,,,,,,,,,,,,,,,,,,,,,,,,,,,,,,,,,,,,,,,,,,,,,,,,,,,,,,,,,,,,390989,001,2023-11-13_15h32.48.892,main,2023.2.3,None,2023-11-13 15h33.01.438496 -0500,
"41, 187, 53","272,295,67","6, 168, 34","64, 21, 165",0,,,,,,,,,,,,,0,0,0,0,,,,,,,,,,,,,,,,,,,,,,,,,,,,,,,,,,,,,,,,,,,,,,,,,60.99775433400646,,,,,,,,,,,,,,,,,,,,,,,,,,,,,,,60.987941624829546,60.99775433400646,60.99775433400646,63.2599818748422,right,2.26170637505129,None,,,,,,,,,,,,,,,,,,,,,,,,,,,,,,,,,,,,,,,,,,,,,,,,,,,,,,,,,,,,,,,,,,390989,001,2023-11-13_15h32.48.892,main,2023.2.3,None,2023-11-13 15h33.01.438496 -0500,
"313, 9, 33","21, 204, 155","2, 142, 48","264, 198, 211",0,,,,,,,,,,,,,0,1,1,4,,,,,,,,,,,,,,,,,,,,,,,,,,,,,,,,,,,,,,,,,,,,,,,,,63.264798333868384,,,,,,,,,,,,,,,,,,,,,,,,,,,,,,,63.26045458391309,63.264798333868384,63.264798333868384,64.42742829187773,right,1.157472375081852,None,,,,,,,,,,,,,,,,,,,,,,,,,,,,,,,,,,,,,,,,,,,,,,,,,,,,,,,,,,,,,,,,,,390989,001,2023-11-13_15h32.48.892,main,2023.2.3,None,2023-11-13 15h33.01.438496 -0500,
"10, 70, 56","20, 200, 160","97, 93, 3","-174, -9, -92",1,,,,,,,,,,,,,0,2,2,2,,,,,,,,,,,,,,,,,,,,,,,,,,,,,,,,,,,,,,,,,,,,,,,,,64.43923191702925,,,,,,,,,,,,,,,,,,,,,,,,,,,,,,,64.42814687499776,64.43923191702925,64.43923191702925,65.41085254191421,left,0.9612856667954475,None,,,,,,,,,,,,,,,,,,,,,,,,,,,,,,,,,,,,,,,,,,,,,,,,,,,,,,,,,,,,,,,,,,390989,001,2023-11-13_15h32.48.892,main,2023.2.3,None,2023-11-13 15h33.01.438496 -0500,
"112, 216, 128","800, 900, 550","253, 173, 257","-65, -51, -27",1,,,,,,,,,,,,,0,3,3,3,,,,,,,,,,,,,,,,,,,,,,,,,,,,,,,,,,,,,,,,,,,,,,,,,65.42253408394754,,,,,,,,,,,,,,,,,,,,,,,,,,,,,,,65.41155245900154,65.42253408394754,65.42253408394754,66.23366058385,left,0.8060103328898549,None,,,,,,,,,,,,,,,,,,,,,,,,,,,,,,,,,,,,,,,,,,,,,,,,,,,,,,,,,,,,,,,,,,390989,001,2023-11-13_15h32.48.892,main,2023.2.3,None,2023-11-13 15h33.01.438496 -0500,
"122, 40, 18","270, 290, 60","465, 323, 97","-84, -100, -244",1,,,,,,,,,,,,,0,4,4,1,,,,,,,,,,,,,,,,,,,,,,,,,,,,,,,,,,,,,,,,,,,,,,,,,66.24346974981017,,,,,,,,,,,,,,,,,,,,,,,,,,,,,,,66.23401820892468,66.24346974981017,66.24346974981017,67.71485999994911,left,1.4660095840226859,None,,,,,,,,,,,,,,,,,,,,,,,,,,,,,,,,,,,,,,,,,,,,,,,,,,,,,,,,,,,,,,,,,,390989,001,2023-11-13_15h32.48.892,main,2023.2.3,None,2023-11-13 15h33.01.438496 -0500,
"91, 299, 31","282, 401, 66","134, 72, 188","136, 169, 0",0,,,,,,,,,,,,,0,5,5,5,,,,,,,,,,,,,,,,,,,,,,,,,,,,,,,,,,,,,,,,,,,,,,,,,67.72652508388273,,,,,,,,,,,,,,,,,,,,,,,,,,,,,,,67.7156418338418,67.72652508388273,67.72652508388273,68.43203529180028,right,0.6959588751196861,None,,,,,,,,,,,,,,,,,,,,,,,,,,,,,,,,,,,,,,,,,,,,,,,,,,,,,,,,,,,,,,,,,,390989,001,2023-11-13_15h32.48.892,main,2023.2.3,None,2023-11-13 15h33.01.438496 -0500,
,,,,,,,,,,,,,,,,,,,,,,,,,,,,,,,,,,,,,,,,,,,,,,,,,,,,,,,,,,,,,,,,,,,,,,,68.43233708385378,68.44376962492242,68.44376962492242,70.2104482089635,space,1.7607741670217365,None,,,,,,,,,,,,,,,,,,,,,,,,,,,,,,,,,,,,,,,,,,,,,,,,,,,,,,,,,,,,,,,,,,,,,,,,,,,,,,,,,,,,,,,,,,,,,,,390989,001,2023-11-13_15h32.48.892,main,2023.2.3,None,2023-11-13 15h33.01.438496 -0500,
136,220,55,-59,,,,,,,,,,,,,,,,,,0,0,0,3,,,,,,,,,,,,,,,,,,,,,,,,,,,,,,,,,,,,,,,,,,,,,70.22853074991144,,,,,,,,,,,,,,,,,,,,,,,,,,,,,,,,,,,,,,70.21718349982984,70.22853074991144,72.21210916689597,,,,,,,,,,,,,,,,,,,,,,,,,,,,,,,,,,,,,,,,,,,,,,,,,,,,,,,,,,,,,,,390989,001,2023-11-13_15h32.48.892,main,2023.2.3,None,2023-11-13 15h33.01.438496 -0500,
32,20,7,-44,,,,,,,,,,,,,,,,,,0,1,1,1,,,,,,,,,,,,,,,,,,,,,,,,,,,,,,,,,,,,,,,,,,,,,72.2264812500216,,,,,,,,,,,,,,,,,,,,,,,,,,,,,,,,,,,,,,72.21227941685356,72.2264812500216,74.21305620879866,,,,,,,,,,,,,,,,,,,,,,,,,,,,,,,,,,,,,,,,,,,,,,,,,,,,,,,,,,,,,,,390989,001,2023-11-13_15h32.48.892,main,2023.2.3,None,2023-11-13 15h33.01.438496 -0500,
2,40,95,-39,,,,,,,,,,,,,,,,,,0,2,2,0,,,,,,,,,,,,,,,,,,,,,,,,,,,,,,,,,,,,,,,,,,,,,74.22722799982876,,,,,,,,,,,,,,,,,,,,,,,,,,,,,,,,,,,,,,74.21333545888774,74.22722799982876,76.2120129589457,,,,,,,,,,,,,,,,,,,,,,,,,,,,,,,,,,,,,,,,,,,,,,,,,,,,,,,,,,,,,,,390989,001,2023-11-13_15h32.48.892,main,2023.2.3,None,2023-11-13 15h33.01.438496 -0500,
12,60,39,-845,,,,,,,,,,,,,,,,,,0,3,3,2,,,,,,,,,,,,,,,,,,,,,,,,,,,,,,,,,,,,,,,,,,,,,76.2270892499946,,,,,,,,,,,,,,,,,,,,,,,,,,,,,,,,,,,,,,76.21243454189971,76.2270892499946,78.2133317918051,,,,,,,,,,,,,,,,,,,,,,,,,,,,,,,,,,,,,,,,,,,,,,,,,,,,,,,,,,,,,,,390989,001,2023-11-13_15h32.48.892,main,2023.2.3,None,2023-11-13 15h33.01.438496 -0500,
,,,,,,,,,,,,,,,,,,,,,,,,,,,,,,,,,,,,,,,,,,,,,,,,,,,,,,,,,,,,,,,,,,,,,,,,,,,,,,,,,,78.21339595899917,78.22722391691059,78.22722391691059,84.17736499989405,space,5.940749583998695,None,,,,,,,,,,,,,,,,,,,,,,,,,,,,,,,,,,,,,,,,,,,,,,,,,,,,,,,,,,,,,,,,,,,,,,,,,,,,,,,,,,,,390989,001,2023-11-13_15h32.48.892,main,2023.2.3,None,2023-11-13 15h33.01.438496 -0500,
"10, 70, 56","20, 200, 160","97, 93, 3","-174, -9, -92",1,,,,,,,,,,,,,,,,,,,,,0,0,0,2,,,,,,,,,,,,,,,,,,,,,,,,,,,,,,,,,,,,,,,,,84.19677941687405,,,,,,,,,,,,,,,,,,,,,,,,,,,,,,,,,,,,,,,,,84.1848312499933,84.19677941687405,84.19677941687405,85.90989783382975,right,1.7128690839745104,None,,,,,,,,,,,,,,,,,,,,,,,,,,,,,,,,,,,,,,,,,,,,,,,,,,,,,,,,390989,001,2023-11-13_15h32.48.892,main,2023.2.3,None,2023-11-13 15h33.01.438496 -0500,
"122, 40, 18","270, 290, 60","465, 323, 97","-84, -100, -244",1,,,,,,,,,,,,,,,,,,,,,0,1,1,1,,,,,,,,,,,,,,,,,,,,,,,,,,,,,,,,,,,,,,,,,85.91394991683774,,,,,,,,,,,,,,,,,,,,,,,,,,,,,,,,,,,,,,,,,85.9102849168703,85.91394991683774,85.91394991683774,86.83313666679896,right,0.9136257499922067,None,,,,,,,,,,,,,,,,,,,,,,,,,,,,,,,,,,,,,,,,,,,,,,,,,,,,,,,,390989,001,2023-11-13_15h32.48.892,main,2023.2.3,None,2023-11-13 15h33.01.438496 -0500,
"41, 187, 53","272,295,67","6, 168, 34","64, 21, 165",0,,,,,,,,,,,,,,,,,,,,,0,2,2,0,,,,,,,,,,,,,,,,,,,,,,,,,,,,,,,,,,,,,,,,,86.843335499987,,,,,,,,,,,,,,,,,,,,,,,,,,,,,,,,,,,,,,,,,86.83350770897232,86.843335499987,86.843335499987,87.68170145899057,left,0.8355225420091301,None,,,,,,,,,,,,,,,,,,,,,,,,,,,,,,,,,,,,,,,,,,,,,,,,,,,,,,,,390989,001,2023-11-13_15h32.48.892,main,2023.2.3,None,2023-11-13 15h33.01.438496 -0500,
"313, 9, 33","21, 204, 155","2, 142, 48","264, 198, 211",0,,,,,,,,,,,,,,,,,,,,,0,3,3,4,,,,,,,,,,,,,,,,,,,,,,,,,,,,,,,,,,,,,,,,,87.69298783387057,,,,,,,,,,,,,,,,,,,,,,,,,,,,,,,,,,,,,,,,,87.68224879191257,87.69298783387057,87.69298783387057,88.76063320902176,left,1.0568366248626262,None,,,,,,,,,,,,,,,,,,,,,,,,,,,,,,,,,,,,,,,,,,,,,,,,,,,,,,,,390989,001,2023-11-13_15h32.48.892,main,2023.2.3,None,2023-11-13 15h33.01.438496 -0500,
"112, 216, 128","800, 900, 550","253, 173, 257","-65, -51, -27",1,,,,,,,,,,,,,,,,,,,,,0,4,4,3,,,,,,,,,,,,,,,,,,,,,,,,,,,,,,,,,,,,,,,,,88.77173437480815,,,,,,,,,,,,,,,,,,,,,,,,,,,,,,,,,,,,,,,,,88.76125629199669,88.77173437480815,88.77173437480815,89.36191029194742,right,0.5806252500042319,None,,,,,,,,,,,,,,,,,,,,,,,,,,,,,,,,,,,,,,,,,,,,,,,,,,,,,,,,390989,001,2023-11-13_15h32.48.892,main,2023.2.3,None,2023-11-13 15h33.01.438496 -0500,
"91, 299, 31","282, 401, 66","134, 72, 188","136, 169, 0",0,,,,,,,,,,,,,,,,,,,,,0,5,5,5,,,,,,,,,,,,,,,,,,,,,,,,,,,,,,,,,,,,,,,,,89.37705000001006,,,,,,,,,,,,,,,,,,,,,,,,,,,,,,,,,,,,,,,,,89.36260608397424,89.37705000001006,89.37705000001006,91.09392033400945,right,1.7152715008705854,None,,,,,,,,,,,,,,,,,,,,,,,,,,,,,,,,,,,,,,,,,,,,,,,,,,,,,,,,390989,001,2023-11-13_15h32.48.892,main,2023.2.3,None,2023-11-13 15h33.01.438496 -0500,
,,,,,,,,,,,,,,,,,,,,,,,,,,,,,,,,,,,,,,,,,,,,,,,,,,,,,,,,,,,,,,,,,,,,,,,91.09428270882927,91.09790199995041,91.09790199995041,92.07976662483998,space,0.9666611249558628,None,,,,,,,,,,,,,,,,,,,,,,,,,,,,,,,,,,,,,,,,,,,,,,,,,,,,,,,,,,,,,,,,,,,,,,,,,,,,,,,,,,,,,,,,,,,,,,,390989,001,2023-11-13_15h32.48.892,main,2023.2.3,None,2023-11-13 15h33.01.438496 -0500,
12,60,39,-845,,,,,,,,,,,,,,,,,,,,,,,,,,0,0,0,2,,,,,,,,,,,,,,,,,,,,,,,,,,,,,,,,,,,,,92.09675058396533,,,,,,,,,,,,,,,,,,,,,,,,,,,,,,,,,,,,,,,,,,,,,,,,92.08492283383384,92.09675058396533,94.09308537491597,,,,,,,,,,,,,,,,,,,,,,,,,,,,,,,,,,,,,,,,,,,,,,,,,,,,,390989,001,2023-11-13_15h32.48.892,main,2023.2.3,None,2023-11-13 15h33.01.438496 -0500,
136,220,55,-59,,,,,,,,,,,,,,,,,,,,,,,,,,0,1,1,3,,,,,,,,,,,,,,,,,,,,,,,,,,,,,,,,,,,,,94.09656395902857,,,,,,,,,,,,,,,,,,,,,,,,,,,,,,,,,,,,,,,,,,,,,,,,94.0932622088585,94.09656395902857,96.08021124987863,,,,,,,,,,,,,,,,,,,,,,,,,,,,,,,,,,,,,,,,,,,,,,,,,,,,,390989,001,2023-11-13_15h32.48.892,main,2023.2.3,None,2023-11-13 15h33.01.438496 -0500,
32,20,7,-44,,,,,,,,,,,,,,,,,,,,,,,,,,0,2,2,1,,,,,,,,,,,,,,,,,,,,,,,,,,,,,,,,,,,,,96.09350191685371,,,,,,,,,,,,,,,,,,,,,,,,,,,,,,,,,,,,,,,,,,,,,,,,96.08064458402805,96.09350191685371,98.07984887482598,98.09371695900336,,,,,,,,,,,,,,,,,,,,,,,,,,,,,,,,,,,,,,,,,,,,,,,,,,,,390989,001,2023-11-13_15h32.48.892,main,2023.2.3,None,2023-11-13 15h33.01.438496 -0500,
2,40,95,-39,,,,,,,,,,,,,,,,,,,,,,,,,,0,3,3,0,,,,,,,,,,,,,,,,,,,,,,,,,,,,,,,,,,,,,98.09371695900336,,,,,,,,,,,,,,,,,,,,,,,,,,,,,,,,,,,,,,,,,,,,,,,,98.08016137499362,98.09371695900336,100.07723716692999,100.08077629189938,,,,,,,,,,,,,,,,,,,,,,,,,,,,,,,,,,,,,,,,,,,,,,,,,,,,390989,001,2023-11-13_15h32.48.892,main,2023.2.3,None,2023-11-13 15h33.01.438496 -0500,
,,,,,,,,,,,,,,,,,,,,,,,,,,,,,,,,,,,,,,,,,,,,,,,,,,,,,,,,,,,,,,,,,,,,,,,,,,,,,,,,,,100.0773109588772,100.08077629189938,100.08077629189938,101.08128049992956,space,0.9967025008518249,None,,,,,,,,,,,,,,,,,,,,,,,,,,,,,,,,,,,,,,,,,,,,,,,,,,,,,,,,,,,,,,,,,,,,,,,,,,,,,,,,,,,,390989,001,2023-11-13_15h32.48.892,main,2023.2.3,None,2023-11-13 15h33.01.438496 -0500,
"112, 216, 128","800, 900, 550","253, 173, 257","-65, -51, -27",1,,,,,,,,,,,,,,,,,,,,,,,,,,,,,0,0,0,3,,,,,,,,,,,,,,,,,,,,,,,,,,,,,,,,,101.10165258380584,,,,,,,,,,,,,,,,,,,,,,,,,,,,,,,,,,,,,,,,,,,,,,,,,,,,101.09103033388965,101.10165258380584,101.10165258380584,102.62643887498416,right,1.5122882497962564,None,,,,,,,,,,,,,,,,,,,,,,,,,,,,,,,,,,,,,,,,,,,,,390989,001,2023-11-13_15h32.48.892,main,2023.2.3,None,2023-11-13 15h33.01.438496 -0500,
"91, 299, 31","282, 401, 66","134, 72, 188","136, 169, 0",0,,,,,,,,,,,,,,,,,,,,,,,,,,,,,0,1,1,5,,,,,,,,,,,,,,,,,,,,,,,,,,,,,,,,,102.63111037481576,,,,,,,,,,,,,,,,,,,,,,,,,,,,,,,,,,,,,,,,,,,,,,,,,,,,102.62683645891957,102.63111037481576,102.63111037481576,103.62731095892377,left,0.9855762079823762,None,,,,,,,,,,,,,,,,,,,,,,,,,,,,,,,,,,,,,,,,,,,,,390989,001,2023-11-13_15h32.48.892,main,2023.2.3,None,2023-11-13 15h33.01.438496 -0500,
"10, 70, 56","20, 200, 160","97, 93, 3","-174, -9, -92",1,,,,,,,,,,,,,,,,,,,,,,,,,,,,,0,2,2,2,,,,,,,,,,,,,,,,,,,,,,,,,,,,,,,,,103.63917741691694,,,,,,,,,,,,,,,,,,,,,,,,,,,,,,,,,,,,,,,,,,,,,,,,,,,,103.62805258389562,103.63917741691694,103.63917741691694,105.04808866698295,right,1.3984160420950502,None,,,,,,,,,,,,,,,,,,,,,,,,,,,,,,,,,,,,,,,,,,,,,390989,001,2023-11-13_15h32.48.892,main,2023.2.3,None,2023-11-13 15h33.01.438496 -0500,
"122, 40, 18","270, 290, 60","465, 323, 97","-84, -100, -244",1,,,,,,,,,,,,,,,,,,,,,,,,,,,,,0,3,3,1,,,,,,,,,,,,,,,,,,,,,,,,,,,,,,,,,105.06017987499945,,,,,,,,,,,,,,,,,,,,,,,,,,,,,,,,,,,,,,,,,,,,,,,,,,,,105.04851962486282,105.06017987499945,105.06017987499945,105.98004845902324,right,0.907135791843757,None,,,,,,,,,,,,,,,,,,,,,,,,,,,,,,,,,,,,,,,,,,,,,390989,001,2023-11-13_15h32.48.892,main,2023.2.3,None,2023-11-13 15h33.01.438496 -0500,
"41, 187, 53","272,295,67","6, 168, 34","64, 21, 165",0,,,,,,,,,,,,,,,,,,,,,,,,,,,,,0,4,4,0,,,,,,,,,,,,,,,,,,,,,,,,,,,,,,,,,105.99357974994928,,,,,,,,,,,,,,,,,,,,,,,,,,,,,,,,,,,,,,,,,,,,,,,,,,,,105.98154208390042,105.99357974994928,105.99357974994928,107.06064366688952,left,1.0643760419916362,None,,,,,,,,,,,,,,,,,,,,,,,,,,,,,,,,,,,,,,,,,,,,,390989,001,2023-11-13_15h32.48.892,main,2023.2.3,None,2023-11-13 15h33.01.438496 -0500,
"313, 9, 33","21, 204, 155","2, 142, 48","264, 198, 211",0,,,,,,,,,,,,,,,,,,,,,,,,,,,,,0,5,5,4,,,,,,,,,,,,,,,,,,,,,,,,,,,,,,,,,107.071809459012,,,,,,,,,,,,,,,,,,,,,,,,,,,,,,,,,,,,,,,,,,,,,,,,,,,,107.06136204185896,107.071809459012,107.071809459012,108.01387887494639,left,0.9413743750192225,None,,,,,,,,,,,,,,,,,,,,,,,,,,,,,,,,,,,,,,,,,,,,,390989,001,2023-11-13_15h32.48.892,main,2023.2.3,None,2023-11-13 15h33.01.438496 -0500,
,,,,,,,,,,,,,,,,,,,,,,,,,,,,,,,,,,,,,,,,,,,,,,,,,,,,,,,,,,,,,,,,,,,,,,,108.01483641681261,108.02701149997301,108.02701149997301,109.06367774982937,space,1.0238146670162678,None,,,,,,,,,,,,,,,,,,,,,,,,,,,,,,,,,,,,,,,,,,,,,,,,,,,,,,,,,,,,,,,,,,,,,,,,,,,,,,,,,,,,,,,,,,,,,,,390989,001,2023-11-13_15h32.48.892,main,2023.2.3,None,2023-11-13 15h33.01.438496 -0500,
98,170,77,-100,,,,,,,,,,,,,,,,,,,,,,,,,,,,,,,,,,0,0,0,3,,,,,,,,,,,,,,,,,,,,,,,,,,,,,109.08088512485847,,,,,,,,,,,,,,,,,,,,,,,,,,,,,,,,,,,,,,,,,,,,,,,,,,,,,,,,,,,109.0709923338145,109.08088512485847,111.07633574982174,,,,,,,,,,,,,,,,,,,,,,,,,,,,,,,,,,,,,,,,,,390989,001,2023-11-13_15h32.48.892,main,2023.2.3,None,2023-11-13 15h33.01.438496 -0500,
8,640,3,-62,,,,,,,,,,,,,,,,,,,,,,,,,,,,,,,,,,0,1,1,1,,,,,,,,,,,,,,,,,,,,,,,,,,,,,111.07977495901287,,,,,,,,,,,,,,,,,,,,,,,,,,,,,,,,,,,,,,,,,,,,,,,,,,,,,,,,,,,111.07651983387768,111.07977495901287,113.06351749994792,113.07693929201923,,,,,,,,,,,,,,,,,,,,,,,,,,,,,,,,,,,,,,,,,390989,001,2023-11-13_15h32.48.892,main,2023.2.3,None,2023-11-13 15h33.01.438496 -0500,
6,20,21,-28,,,,,,,,,,,,,,,,,,,,,,,,,,,,,,,,,,0,2,2,0,,,,,,,,,,,,,,,,,,,,,,,,,,,,,113.07693929201923,,,,,,,,,,,,,,,,,,,,,,,,,,,,,,,,,,,,,,,,,,,,,,,,,,,,,,,,,,,113.06393720884807,113.07693929201923,115.06046862481162,115.06833499995992,,,,,,,,,,,,,,,,,,,,,,,,,,,,,,,,,,,,,,,,,390989,001,2023-11-13_15h32.48.892,main,2023.2.3,None,2023-11-13 15h33.01.438496 -0500,
4,80,33,-4,,,,,,,,,,,,,,,,,,,,,,,,,,,,,,,,,,0,3,3,5,,,,,,,,,,,,,,,,,,,,,,,,,,,,,115.06833499995992,,,,,,,,,,,,,,,,,,,,,,,,,,,,,,,,,,,,,,,,,,,,,,,,,,,,,,,,,,,115.06089604180306,115.06833499995992,117.05118579184636,117.05961587489583,,,,,,,,,,,,,,,,,,,,,,,,,,,,,,,,,,,,,,,,,390989,001,2023-11-13_15h32.48.892,main,2023.2.3,None,2023-11-13 15h33.01.438496 -0500,
40,30,91,-3,,,,,,,,,,,,,,,,,,,,,,,,,,,,,,,,,,0,4,4,4,,,,,,,,,,,,,,,,,,,,,,,,,,,,,117.05961587489583,,,,,,,,,,,,,,,,,,,,,,,,,,,,,,,,,,,,,,,,,,,,,,,,,,,,,,,,,,,117.0516081249807,117.05961587489583,119.04377054190263,119.04967783391476,,,,,,,,,,,,,,,,,,,,,,,,,,,,,,,,,,,,,,,,,390989,001,2023-11-13_15h32.48.892,main,2023.2.3,None,2023-11-13 15h33.01.438496 -0500,
12,260,51,-111,,,,,,,,,,,,,,,,,,,,,,,,,,,,,,,,,,0,5,5,2,,,,,,,,,,,,,,,,,,,,,,,,,,,,,119.04967783391476,,,,,,,,,,,,,,,,,,,,,,,,,,,,,,,,,,,,,,,,,,,,,,,,,,,,,,,,,,,119.04412229196168,119.06299554184079,121.0482213338837,121.06284749996848,,,,,,,,,,,,,,,,,,,,,,,,,,,,,,,,,,,,,,,,,390989,001,2023-11-13_15h32.48.892,main,2023.2.3,None,2023-11-13 15h33.01.438496 -0500,
,,,,,,,,,,,,,,,,,,,,,,,,,,,,,,,,,,,,,,,,,,,,,,,,,,,,,,,,,,,,,,,,,,,,,,,,,,,,,,,,,,121.04830854199827,121.06284749996848,121.06284749996848,122.47953316685744,space,1.4062324170954525,None,,,,,,,,,,,,,,,,,,,,,,,,,,,,,,,,,,,,,,,,,,,,,,,,,,,,,,,,,,,,,,,,,,,,,,,,,,,,,,,,,,,,390989,001,2023-11-13_15h32.48.892,main,2023.2.3,None,2023-11-13 15h33.01.438496 -0500,
"189, 77, 95","66, 138, 284","154, 166, 92","261, 67, 45",0,,,,,,,,,,,,,,,,,,,,,,,,,,,,,,,,,,,,,0,0,0,1,,,,,,,,,,,,,,,,,,,,,,,,,122.51049841684289,,,,,,,,,,,,,,,,,,,,,,,,,,,,,,,,,,,,,,,,,,,,,,,,,,,,,,,,,,,,,,,122.48453675000928,122.51049841684289,122.51049841684289,123.80967833381146,left,1.2856811669189483,None,,,,,,,,,,,,,,,,,,,,,,,,,,,,,,,,,,390989,001,2023-11-13_15h32.48.892,main,2023.2.3,None,2023-11-13 15h33.01.438496 -0500,
"221,63,111","22, 44, 509","162, 70, 118","219, 288, 39",0,,,,,,,,,,,,,,,,,,,,,,,,,,,,,,,,,,,,,0,1,1,0,,,,,,,,,,,,,,,,,,,,,,,,,123.81424545892514,,,,,,,,,,,,,,,,,,,,,,,,,,,,,,,,,,,,,,,,,,,,,,,,,,,,,,,,,,,,,,,123.81006629182957,123.81424545892514,123.81424545892514,124.58592741680332,left,0.7704479170497507,None,,,,,,,,,,,,,,,,,,,,,,,,,,,,,,,,,,390989,001,2023-11-13_15h32.48.892,main,2023.2.3,None,2023-11-13 15h33.01.438496 -0500,
"222, 50, 90","280, 20, 170","583, 261, 513","-160, -50, -266",1,,,,,,,,,,,,,,,,,,,,,,,,,,,,,,,,,,,,,0,2,2,2,,,,,,,,,,,,,,,,,,,,,,,,,124.59279512497596,,,,,,,,,,,,,,,,,,,,,,,,,,,,,,,,,,,,,,,,,,,,,,,,,,,,,,,,,,,,,,,124.58622308401391,124.59279512497596,124.59279512497596,125.34373791702092,right,0.7408242090605199,None,,,,,,,,,,,,,,,,,,,,,,,,,,,,,,,,,,390989,001,2023-11-13_15h32.48.892,main,2023.2.3,None,2023-11-13 15h33.01.438496 -0500,
"400, 76, 14","120, 270, 20","25, 87, 119","-16, -40, -27",1,,,,,,,,,,,,,,,,,,,,,,,,,,,,,,,,,,,,,0,3,3,3,,,,,,,,,,,,,,,,,,,,,,,,,125.3529917919077,,,,,,,,,,,,,,,,,,,,,,,,,,,,,,,,,,,,,,,,,,,,,,,,,,,,,,,,,,,,,,,125.34428945882246,125.3529917919077,125.3529917919077,126.34707499993965,right,0.9793165419250727,None,,,,,,,,,,,,,,,,,,,,,,,,,,,,,,,,,,390989,001,2023-11-13_15h32.48.892,main,2023.2.3,None,2023-11-13 15h33.01.438496 -0500,
"287,53,49","71, 24, 603","86, 150, 140","248, 9, 139",0,,,,,,,,,,,,,,,,,,,,,,,,,,,,,,,,,,,,,0,4,4,4,,,,,,,,,,,,,,,,,,,,,,,,,126.36023429199122,,,,,,,,,,,,,,,,,,,,,,,,,,,,,,,,,,,,,,,,,,,,,,,,,,,,,,,,,,,,,,,126.34745499980636,126.36023429199122,126.36023429199122,128.4772469168529,left,2.110463917022571,None,,,,,,,,,,,,,,,,,,,,,,,,,,,,,,,,,,390989,001,2023-11-13_15h32.48.892,main,2023.2.3,None,2023-11-13 15h33.01.438496 -0500,
"42, 88, 20","180, 60, 50","463, 515, 119","-30, -61, -122",1,,,,,,,,,,,,,,,,,,,,,,,,,,,,,,,,,,,,,0,5,5,5,,,,,,,,,,,,,,,,,,,,,,,,,128.49001391697675,,,,,,,,,,,,,,,,,,,,,,,,,,,,,,,,,,,,,,,,,,,,,,,,,,,,,,,,,,,,,,,128.47798241698183,128.49001391697675,128.49001391697675,129.22724804189056,right,0.7258257090579718,None,,,,,,,,,,,,,,,,,,,,,,,,,,,,,,,,,,390989,001,2023-11-13_15h32.48.892,main,2023.2.3,None,2023-11-13 15h33.01.438496 -0500,
,,,,,,,,,,,,,,,,,,,,,,,,,,,,,,,,,,,,,,,,,,,,,,,,,,,,,,,,,,,,,,,,,,,,,,,129.22773574991152,129.23380270903,129.23380270903,130.09396774997003,space,0.8569566670339555,None,,,,,,,,,,,,,,,,,,,,,,,,,,,,,,,,,,,,,,,,,,,,,,,,,,,,,,,,,,,,,,,,,,,,,,,,,,,,,,,,,,,,,,,,,,,,,,,390989,001,2023-11-13_15h32.48.892,main,2023.2.3,None,2023-11-13 15h33.01.438496 -0500,
12,260,51,-111,,,,,,,,,,,,,,,,,,,,,,,,,,,,,,,,,,,,,,,,,,0,0,0,2,,,,,,,,,,,,,,,,,,,,,130.1110736669507,,,,,,,,,,,,,,,,,,,,,,,,,,,,,,,,,,,,,,,,,,,,,,,,,,,,,,,,,,,,,,,,,,,,,,130.0997733748518,130.1110736669507,132.09660799987614,,,,,,,,,,,,,,,,,,,,,,,,,,,,,,,390989,001,2023-11-13_15h32.48.892,main,2023.2.3,None,2023-11-13 15h33.01.438496 -0500,
6,20,21,-28,,,,,,,,,,,,,,,,,,,,,,,,,,,,,,,,,,,,,,,,,,0,1,1,0,,,,,,,,,,,,,,,,,,,,,132.10977770900354,,,,,,,,,,,,,,,,,,,,,,,,,,,,,,,,,,,,,,,,,,,,,,,,,,,,,,,,,,,,,,,,,,,,,,132.0968155839946,132.10977770900354,134.09389991685748,134.1019814168103,,,,,,,,,,,,,,,,,,,,,,,,,,,,,,390989,001,2023-11-13_15h32.48.892,main,2023.2.3,None,2023-11-13 15h33.01.438496 -0500,
4,80,33,-4,,,,,,,,,,,,,,,,,,,,,,,,,,,,,,,,,,,,,,,,,,0,2,2,5,,,,,,,,,,,,,,,,,,,,,134.1019814168103,,,,,,,,,,,,,,,,,,,,,,,,,,,,,,,,,,,,,,,,,,,,,,,,,,,,,,,,,,,,,,,,,,,,,,134.09432895900682,134.1019814168103,136.093667041976,136.1015901248902,,,,,,,,,,,,,,,,,,,,,,,,,,,,,,390989,001,2023-11-13_15h32.48.892,main,2023.2.3,None,2023-11-13 15h33.01.438496 -0500,
98,170,77,-100,,,,,,,,,,,,,,,,,,,,,,,,,,,,,,,,,,,,,,,,,,0,3,3,3,,,,,,,,,,,,,,,,,,,,,136.1015901248902,,,,,,,,,,,,,,,,,,,,,,,,,,,,,,,,,,,,,,,,,,,,,,,,,,,,,,,,,,,,,,,,,,,,,,136.09407049999572,136.1015901248902,138.09359429194592,138.09946904191747,,,,,,,,,,,,,,,,,,,,,,,,,,,,,,390989,001,2023-11-13_15h32.48.892,main,2023.2.3,None,2023-11-13 15h33.01.438496 -0500,
40,30,91,-3,,,,,,,,,,,,,,,,,,,,,,,,,,,,,,,,,,,,,,,,,,0,4,4,4,,,,,,,,,,,,,,,,,,,,,138.09946904191747,,,,,,,,,,,,,,,,,,,,,,,,,,,,,,,,,,,,,,,,,,,,,,,,,,,,,,,,,,,,,,,,,,,,,,138.0938627088908,138.09946904191747,140.0954020000063,,,,,,,,,,,,,,,,,,,,,,,,,,,,,,,390989,001,2023-11-13_15h32.48.892,main,2023.2.3,None,2023-11-13 15h33.01.438496 -0500,
8,640,3,-62,,,,,,,,,,,,,,,,,,,,,,,,,,,,,,,,,,,,,,,,,,0,5,5,1,,,,,,,,,,,,,,,,,,,,,140.10425895894878,,,,,,,,,,,,,,,,,,,,,,,,,,,,,,,,,,,,,,,,,,,,,,,,,,,,,,,,,,,,,,,,,,,,,,140.0957629168406,140.10425895894878,142.0936199168209,142.09692779183388,,,,,,,,,,,,,,,,,,,,,,,,,,,,,,390989,001,2023-11-13_15h32.48.892,main,2023.2.3,None,2023-11-13 15h33.01.438496 -0500,
,,,,,,,,,,,,,,,,,,,,,,,,,,,,,,,,,,,,,,,,,,,,,,,,,,,,,,,,,,,,,,,,,,,,,,,,,,,,,,,,,,142.09369966690429,142.09692779183388,142.09692779183388,145.2937327499967,space,3.188916709041223,None,,,,,,,,,,,,,,,,,,,,,,,,,,,,,,,,,,,,,,,,,,,,,,,,,,,,,,,,,,,,,,,,,,,,,,,,,,,,,,,,,,,,390989,001,2023-11-13_15h32.48.892,main,2023.2.3,None,2023-11-13 15h33.01.438496 -0500,
"221,63,111","22, 44, 509","162, 70, 118","219, 288, 39",0,,,,,,,,,,,,,,,,,,,,,,,,,,,,,,,,,,,,,,,,,,,,,0,0,0,0,,,,,,,,,,,,,,,,,145.31190224993043,,,,,,,,,,,,,,,,,,,,,,,,,,,,,,,,,,,,,,,,,,,,,,,,,,,,,,,,,,,,,,,,,,,,,,,,,,145.29992641694844,145.31190224993043,145.31190224993043,146.5428921249695,left,1.228523917030543,None,,,,,,,,,,,,,,,,,,,,,,,390989,001,2023-11-13_15h32.48.892,main,2023.2.3,None,2023-11-13 15h33.01.438496 -0500,
"189, 77, 95","66, 138, 284","154, 166, 92","261, 67, 45",0,,,,,,,,,,,,,,,,,,,,,,,,,,,,,,,,,,,,,,,,,,,,,0,1,1,1,,,,,,,,,,,,,,,,,146.54761912487447,,,,,,,,,,,,,,,,,,,,,,,,,,,,,,,,,,,,,,,,,,,,,,,,,,,,,,,,,,,,,,,,,,,,,,,,,,146.5432780419942,146.54761912487447,146.54761912487447,147.52915183384903,right,0.9811982919927686,None,,,,,,,,,,,,,,,,,,,,,,,390989,001,2023-11-13_15h32.48.892,main,2023.2.3,None,2023-11-13 15h33.01.438496 -0500,
"400, 76, 14","120, 270, 20","25, 87, 119","-16, -40, -27",1,,,,,,,,,,,,,,,,,,,,,,,,,,,,,,,,,,,,,,,,,,,,,0,2,2,3,,,,,,,,,,,,,,,,,147.54302254202776,,,,,,,,,,,,,,,,,,,,,,,,,,,,,,,,,,,,,,,,,,,,,,,,,,,,,,,,,,,,,,,,,,,,,,,,,,147.52951370901428,147.54302254202776,147.54302254202776,148.5437435838394,right,0.9982489577960223,None,,,,,,,,,,,,,,,,,,,,,,,390989,001,2023-11-13_15h32.48.892,main,2023.2.3,None,2023-11-13 15h33.01.438496 -0500,
"222, 50, 90","280, 20, 170","583, 261, 513","-160, -50, -266",1,,,,,,,,,,,,,,,,,,,,,,,,,,,,,,,,,,,,,,,,,,,,,0,3,3,2,,,,,,,,,,,,,,,,,148.553835041821,,,,,,,,,,,,,,,,,,,,,,,,,,,,,,,,,,,,,,,,,,,,,,,,,,,,,,,,,,,,,,,,,,,,,,,,,,148.5443518748507,148.553835041821,148.553835041821,149.3966362918727,right,0.832584333140403,None,,,,,,,,,,,,,,,,,,,,,,,390989,001,2023-11-13_15h32.48.892,main,2023.2.3,None,2023-11-13 15h33.01.438496 -0500,
"42, 88, 20","180, 60, 50","463, 515, 119","-30, -61, -122",1,,,,,,,,,,,,,,,,,,,,,,,,,,,,,,,,,,,,,,,,,,,,,0,4,4,5,,,,,,,,,,,,,,,,,149.41008308390155,,,,,,,,,,,,,,,,,,,,,,,,,,,,,,,,,,,,,,,,,,,,,,,,,,,,,,,,,,,,,,,,,,,,,,,,,,149.39722504187375,149.41008308390155,149.41008308390155,150.3459075000137,right,0.9243319588713348,None,,,,,,,,,,,,,,,,,,,,,,,390989,001,2023-11-13_15h32.48.892,main,2023.2.3,None,2023-11-13 15h33.01.438496 -0500,
"287,53,49","71, 24, 603","86, 150, 140","248, 9, 139",0,,,,,,,,,,,,,,,,,,,,,,,,,,,,,,,,,,,,,,,,,,,,,0,5,5,4,,,,,,,,,,,,,,,,,150.42837095889263,,,,,,,,,,,,,,,,,,,,,,,,,,,,,,,,,,,,,,,,,,,,,,,,,,,,,,,,,,,,,,,,,,,,,,,,,,150.3466332089156,150.42837095889263,150.42837095889263,151.1770600839518,left,0.7383241259958595,None,,,,,,,,,,,,,,,,,,,,,,,390989,001,2023-11-13_15h32.48.892,main,2023.2.3,None,2023-11-13 15h33.01.438496 -0500,
,,,,,,,,,,,,,,,,,,,,,,,,,,,,,,,,,,,,,,,,,,,,,,,,,,,,,,,,,,,,,,,,,,,,,,,151.17753937491216,151.183526000008,151.183526000008,151.8505680838134,space,0.665348167065531,None,,,,,,,,,,,,,,,,,,,,,,,,,,,,,,,,,,,,,,,,,,,,,,,,,,,,,,,,,,,,,,,,,,,,,,,,,,,,,,,,,,,,,,,,,,,,,,,390989,001,2023-11-13_15h32.48.892,main,2023.2.3,None,2023-11-13 15h33.01.438496 -0500,
98,170,77,-100,,,,,,,,,,,,,,,,,,,,,,,,,,,,,,,,,,,,,,,,,,,,,,,,,,0,0,0,3,,,,,,,,,,,,,151.8675183749292,,,,,,,,,,,,,,,,,,,,,,,,,,,,,,,,,,,,,,,,,,,,,,,,,,,,,,,,,,,,,,,,,,,,,,,,,,,,,,,,,151.85781216691248,151.8675183749292,153.85946745891124,,,,,,,,,,,,,,,,,,,,390989,001,2023-11-13_15h32.48.892,main,2023.2.3,None,2023-11-13 15h33.01.438496 -0500,
8,640,3,-62,,,,,,,,,,,,,,,,,,,,,,,,,,,,,,,,,,,,,,,,,,,,,,,,,,0,1,1,1,,,,,,,,,,,,,153.86334112496115,,,,,,,,,,,,,,,,,,,,,,,,,,,,,,,,,,,,,,,,,,,,,,,,,,,,,,,,,,,,,,,,,,,,,,,,,,,,,,,,,153.85968879191205,153.86334112496115,155.8466020419728,155.86006008391269,,,,,,,,,,,,,,,,,,,390989,001,2023-11-13_15h32.48.892,main,2023.2.3,None,2023-11-13 15h33.01.438496 -0500,
40,30,91,-3,,,,,,,,,,,,,,,,,,,,,,,,,,,,,,,,,,,,,,,,,,,,,,,,,,0,2,2,4,,,,,,,,,,,,,155.86006008391269,,,,,,,,,,,,,,,,,,,,,,,,,,,,,,,,,,,,,,,,,,,,,,,,,,,,,,,,,,,,,,,,,,,,,,,,,,,,,,,,,155.84693354181945,155.86006008391269,157.84344520885497,157.85162083385512,,,,,,,,,,,,,,,,,,,390989,001,2023-11-13_15h32.48.892,main,2023.2.3,None,2023-11-13 15h33.01.438496 -0500,
6,20,21,-28,,,,,,,,,,,,,,,,,,,,,,,,,,,,,,,,,,,,,,,,,,,,,,,,,,0,3,3,0,,,,,,,,,,,,,157.85162083385512,,,,,,,,,,,,,,,,,,,,,,,,,,,,,,,,,,,,,,,,,,,,,,,,,,,,,,,,,,,,,,,,,,,,,,,,,,,,,,,,,157.84384487499483,157.85162083385512,159.84665025002323,159.86005254182965,,,,,,,,,,,,,,,,,,,390989,001,2023-11-13_15h32.48.892,main,2023.2.3,None,2023-11-13 15h33.01.438496 -0500,
12,260,51,-111,,,,,,,,,,,,,,,,,,,,,,,,,,,,,,,,,,,,,,,,,,,,,,,,,,0,4,4,2,,,,,,,,,,,,,159.86005254182965,,,,,,,,,,,,,,,,,,,,,,,,,,,,,,,,,,,,,,,,,,,,,,,,,,,,,,,,,,,,,,,,,,,,,,,,,,,,,,,,,159.84689362486824,159.86005254182965,161.84346183389425,161.85164487501606,,,,,,,,,,,,,,,,,,,390989,001,2023-11-13_15h32.48.892,main,2023.2.3,None,2023-11-13 15h33.01.438496 -0500,
4,80,33,-4,,,,,,,,,,,,,,,,,,,,,,,,,,,,,,,,,,,,,,,,,,,,,,,,,,0,5,5,5,,,,,,,,,,,,,161.85164487501606,,,,,,,,,,,,,,,,,,,,,,,,,,,,,,,,,,,,,,,,,,,,,,,,,,,,,,,,,,,,,,,,,,,,,,,,,,,,,,,,,161.84390087495558,161.85164487501606,163.84349374985322,163.84669387480244,,,,,,,,,,,,,,,,,,,390989,001,2023-11-13_15h32.48.892,main,2023.2.3,None,2023-11-13 15h33.01.438496 -0500,
,,,,,,,,,,,,,,,,,,,,,,,,,,,,,,,,,,,,,,,,,,,,,,,,,,,,,,,,,,,,,,,,,,,,,,,,,,,,,,,,,,163.84356433385983,163.84669387480244,163.84669387480244,165.14726349990815,space,1.2982055831234902,None,,,,,,,,,,,,,,,,,,,,,,,,,,,,,,,,,,,,,,,,,,,,,,,,,,,,,,,,,,,,,,,,,,,,,,,,,,,,,,,,,,,,390989,001,2023-11-13_15h32.48.892,main,2023.2.3,None,2023-11-13 15h33.01.438496 -0500,
"189, 77, 95","66, 138, 284","154, 166, 92","261, 67, 45",0,,,,,,,,,,,,,,,,,,,,,,,,,,,,,,,,,,,,,,,,,,,,,,,,,,,,,0,0,0,1,,,,,,,,,165.15906491689384,,,,,,,,,,,,,,,,,,,,,,,,,,,,,,,,,,,,,,,,,,,,,,,,,,,,,,,,,,,,,,,,,,,,,,,,,,,,,,,,,,,,,165.1519214999862,165.15906491689384,165.15906491689384,166.85945262480527,right,1.6942610831465572,None,,,,,,,,,,,,390989,001,2023-11-13_15h32.48.892,main,2023.2.3,None,2023-11-13 15h33.01.438496 -0500,
"42, 88, 20","180, 60, 50","463, 515, 119","-30, -61, -122",1,,,,,,,,,,,,,,,,,,,,,,,,,,,,,,,,,,,,,,,,,,,,,,,,,,,,,0,1,1,5,,,,,,,,,166.8641412500292,,,,,,,,,,,,,,,,,,,,,,,,,,,,,,,,,,,,,,,,,,,,,,,,,,,,,,,,,,,,,,,,,,,,,,,,,,,,,,,,,,,,,166.85985637502745,166.8641412500292,166.8641412500292,168.0774759168271,left,1.2054765420034528,None,,,,,,,,,,,,390989,001,2023-11-13_15h32.48.892,main,2023.2.3,None,2023-11-13 15h33.01.438496 -0500,
"287,53,49","71, 24, 603","86, 150, 140","248, 9, 139",0,,,,,,,,,,,,,,,,,,,,,,,,,,,,,,,,,,,,,,,,,,,,,,,,,,,,,0,2,2,4,,,,,,,,,168.09153908398002,,,,,,,,,,,,,,,,,,,,,,,,,,,,,,,,,,,,,,,,,,,,,,,,,,,,,,,,,,,,,,,,,,,,,,,,,,,,,,,,,,,,,168.07984916702844,168.09153908398002,168.09153908398002,169.43087145895697,left,1.3333267089910805,None,,,,,,,,,,,,390989,001,2023-11-13_15h32.48.892,main,2023.2.3,None,2023-11-13 15h33.01.438496 -0500,
"400, 76, 14","120, 270, 20","25, 87, 119","-16, -40, -27",1,,,,,,,,,,,,,,,,,,,,,,,,,,,,,,,,,,,,,,,,,,,,,,,,,,,,,0,3,3,3,,,,,,,,,169.44333804189228,,,,,,,,,,,,,,,,,,,,,,,,,,,,,,,,,,,,,,,,,,,,,,,,,,,,,,,,,,,,,,,,,,,,,,,,,,,,,,,,,,,,,169.43134270887822,169.44333804189228,169.44333804189228,170.04356316686608,right,0.5898286260198802,None,,,,,,,,,,,,390989,001,2023-11-13_15h32.48.892,main,2023.2.3,None,2023-11-13 15h33.01.438496 -0500,
"221,63,111","22, 44, 509","162, 70, 118","219, 288, 39",0,,,,,,,,,,,,,,,,,,,,,,,,,,,,,,,,,,,,,,,,,,,,,,,,,,,,,0,4,4,0,,,,,,,,,170.0523411249742,,,,,,,,,,,,,,,,,,,,,,,,,,,,,,,,,,,,,,,,,,,,,,,,,,,,,,,,,,,,,,,,,,,,,,,,,,,,,,,,,,,,,170.04407608392648,170.0523411249742,170.0523411249742,171.2637830839958,right,1.2009672510903329,None,,,,,,,,,,,,390989,001,2023-11-13_15h32.48.892,main,2023.2.3,None,2023-11-13 15h33.01.438496 -0500,
"222, 50, 90","280, 20, 170","583, 261, 513","-160, -50, -266",1,,,,,,,,,,,,,,,,,,,,,,,,,,,,,,,,,,,,,,,,,,,,,,,,,,,,,0,5,5,2,,,,,,,,,171.27590875001624,,,,,,,,,,,,,,,,,,,,,,,,,,,,,,,,,,,,,,,,,,,,,,,,,,,,,,,,,,,,,,,,,,,,,,,,,,,,,,,,,,,,,171.2649403749965,171.27590875001624,171.27590875001624,171.9120082918089,left,0.6355821259785444,None,,,,,,,,,,,,390989,001,2023-11-13_15h32.48.892,main,2023.2.3,None,2023-11-13 15h33.01.438496 -0500,
,,,,,,,,,,,,,,,,,,,,,,,,,,,,,,,,,,,,,,,,,,,,,,,,,,,,,,,,,,,,,,,,,,,,,,,171.9126133339014,171.91862179199234,171.91862179199234,173.69713783380575,space,1.7663455840665847,None,,,,,,,,,,,,,,,,,,,,,,,,,,,,,,,,,,,,,,,,,,,,,,,,,,,,,,,,,,,,,,,,,,,,,,,,,,,,,,,,,,,,,,,,,,,,,,,390989,001,2023-11-13_15h32.48.892,main,2023.2.3,None,2023-11-13 15h33.01.438496 -0500,
4,80,33,-4,,,,,,,,,,,,,,,,,,,,,,,,,,,,,,,,,,,,,,,,,,,,,,,,,,,,,,,,,,0,0,0,5,,,,,173.71326462482102,,,,,,,,,,,,,,,,,,,,,,,,,,,,,,,,,,,,,,,,,,,,,,,,,,,,,,,,,,,,,,,,,,,,,,,,,,,,,,,,,,,,,,,,,,,,173.70205504191108,173.71326462482102,175.70940645900555,,,,,,,,,390989,001,2023-11-13_15h32.48.892,main,2023.2.3,None,2023-11-13 15h33.01.438496 -0500,
8,640,3,-62,,,,,,,,,,,,,,,,,,,,,,,,,,,,,,,,,,,,,,,,,,,,,,,,,,,,,,,,,,0,1,1,1,,,,,175.7134188748896,,,,,,,,,,,,,,,,,,,,,,,,,,,,,,,,,,,,,,,,,,,,,,,,,,,,,,,,,,,,,,,,,,,,,,,,,,,,,,,,,,,,,,,,,,,,175.70963966683485,175.7134188748896,177.69694720883854,177.7112246248871,,,,,,,,390989,001,2023-11-13_15h32.48.892,main,2023.2.3,None,2023-11-13 15h33.01.438496 -0500,
12,260,51,-111,,,,,,,,,,,,,,,,,,,,,,,,,,,,,,,,,,,,,,,,,,,,,,,,,,,,,,,,,,0,2,2,2,,,,,177.7112246248871,,,,,,,,,,,,,,,,,,,,,,,,,,,,,,,,,,,,,,,,,,,,,,,,,,,,,,,,,,,,,,,,,,,,,,,,,,,,,,,,,,,,,,,,,,,,177.69735245895572,177.7112246248871,179.699903416913,,,,,,,,,390989,001,2023-11-13_15h32.48.892,main,2023.2.3,None,2023-11-13 15h33.01.438496 -0500,
98,170,77,-100,,,,,,,,,,,,,,,,,,,,,,,,,,,,,,,,,,,,,,,,,,,,,,,,,,,,,,,,,,0,3,3,3,,,,,179.70917349983938,,,,,,,,,,,,,,,,,,,,,,,,,,,,,,,,,,,,,,,,,,,,,,,,,,,,,,,,,,,,,,,,,,,,,,,,,,,,,,,,,,,,,,,,,,,,179.70034124981612,179.70917349983938,181.69611716689542,181.70995483384468,,,,,,,,390989,001,2023-11-13_15h32.48.892,main,2023.2.3,None,2023-11-13 15h33.01.438496 -0500,
6,20,21,-28,,,,,,,,,,,,,,,,,,,,,,,,,,,,,,,,,,,,,,,,,,,,,,,,,,,,,,,,,,0,4,4,0,,,,,181.70995483384468,,,,,,,,,,,,,,,,,,,,,,,,,,,,,,,,,,,,,,,,,,,,,,,,,,,,,,,,,,,,,,,,,,,,,,,,,,,,,,,,,,,,,,,,,,,,181.69651187490672,181.70995483384468,183.6957734588068,183.71000466682017,,,,,,,,390989,001,2023-11-13_15h32.48.892,main,2023.2.3,None,2023-11-13 15h33.01.438496 -0500,
40,30,91,-3,,,,,,,,,,,,,,,,,,,,,,,,,,,,,,,,,,,,,,,,,,,,,,,,,,,,,,,,,,0,5,5,4,,,,,183.71000466682017,,,,,,,,,,,,,,,,,,,,,,,,,,,,,,,,,,,,,,,,,,,,,,,,,,,,,,,,,,,,,,,,,,,,,,,,,,,,,,,,,,,,,,,,,,,,183.69650654192083,183.71000466682017,185.69549024989828,185.71005404181778,,,,,,,,390989,001,2023-11-13_15h32.48.892,main,2023.2.3,None,2023-11-13 15h33.01.438496 -0500,
,,,,,,,,,,,,,,,,,,,,,,,,,,,,,,,,,,,,,,,,,,,,,,,,,,,,,,,,,,,,,,,,,,,,,,,,,,,,,,,,,,185.69565695896745,185.71005404181778,185.71005404181778,187.41257091681473,space,1.6930373748764396,None,,,,,,,,,,,,,,,,,,,,,,,,,,,,,,,,,,,,,,,,,,,,,,,,,,,,,,,,,,,,,,,,,,,,,,,,,,,,,,,,,,,,390989,001,2023-11-13_15h32.48.892,main,2023.2.3,None,2023-11-13 15h33.01.438496 -0500,
"42, 88, 20","180, 60, 50","463, 515, 119","-30, -61, -122",1,,,,,,,,,,,,,,,,,,,,,,,,,,,,,,,,,,,,,,,,,,,,,,,,,,,,,,,,,,,,,0,0,0,5,187.4297319999896,,,,,,,,,,,,,,,,,,,,,,,,,,,,,,,,,,,,,,,,,,,,,,,,,,,,,,,,,,,,,,,,,,,,,,,,,,,,,,,,,,,,,,,,,,,,,,,,187.41849895892665,187.4297319999896,187.4297319999896,188.60937491687946,right,1.1776837091892958,None,390989,001,2023-11-13_15h32.48.892,main,2023.2.3,None,2023-11-13 15h33.01.438496 -0500,
"400, 76, 14","120, 270, 20","25, 87, 119","-16, -40, -27",1,,,,,,,,,,,,,,,,,,,,,,,,,,,,,,,,,,,,,,,,,,,,,,,,,,,,,,,,,,,,,0,1,1,3,188.61411074991338,,,,,,,,,,,,,,,,,,,,,,,,,,,,,,,,,,,,,,,,,,,,,,,,,,,,,,,,,,,,,,,,,,,,,,,,,,,,,,,,,,,,,,,,,,,,,,,,188.60977420886047,188.61411074991338,188.61411074991338,189.9813183338847,left,1.3667791669722646,None,390989,001,2023-11-13_15h32.48.892,main,2023.2.3,None,2023-11-13 15h33.01.438496 -0500,
"287,53,49","71, 24, 603","86, 150, 140","248, 9, 139",0,,,,,,,,,,,,,,,,,,,,,,,,,,,,,,,,,,,,,,,,,,,,,,,,,,,,,,,,,,,,,0,2,2,4,189.99266849993728,,,,,,,,,,,,,,,,,,,,,,,,,,,,,,,,,,,,,,,,,,,,,,,,,,,,,,,,,,,,,,,,,,,,,,,,,,,,,,,,,,,,,,,,,,,,,,,,189.982044583885,189.99266849993728,189.99266849993728,191.71000866685063,left,1.7158908748533577,None,390989,001,2023-11-13_15h32.48.892,main,2023.2.3,None,2023-11-13 15h33.01.438496 -0500,
"221,63,111","22, 44, 509","162, 70, 118","219, 288, 39",0,,,,,,,,,,,,,,,,,,,,,,,,,,,,,,,,,,,,,,,,,,,,,,,,,,,,,,,,,,,,,0,3,3,0,191.71596387494355,,,,,,,,,,,,,,,,,,,,,,,,,,,,,,,,,,,,,,,,,,,,,,,,,,,,,,,,,,,,,,,,,,,,,,,,,,,,,,,,,,,,,,,,,,,,,,,,191.71036445884965,191.71596387494355,191.71596387494355,192.6288901248481,left,0.9024754168931395,None,390989,001,2023-11-13_15h32.48.892,main,2023.2.3,None,2023-11-13 15h33.01.438496 -0500,
"189, 77, 95","66, 138, 284","154, 166, 92","261, 67, 45",0,,,,,,,,,,,,,,,,,,,,,,,,,,,,,,,,,,,,,,,,,,,,,,,,,,,,,,,,,,,,,0,4,4,1,192.6432944999542,,,,,,,,,,,,,,,,,,,,,,,,,,,,,,,,,,,,,,,,,,,,,,,,,,,,,,,,,,,,,,,,,,,,,,,,,,,,,,,,,,,,,,,,,,,,,,,,192.62959270901047,192.6432944999542,192.6432944999542,193.81375887501054,left,1.1690050829201937,None,390989,001,2023-11-13_15h32.48.892,main,2023.2.3,None,2023-11-13 15h33.01.438496 -0500,
"222, 50, 90","280, 20, 170","583, 261, 513","-160, -50, -266",1,,,,,,,,,,,,,,,,,,,,,,,,,,,,,,,,,,,,,,,,,,,,,,,,,,,,,,,,,,,,,0,5,5,2,193.82653645891696,,,,,,,,,,,,,,,,,,,,,,,,,,,,,,,,,,,,,,,,,,,,,,,,,,,,,,,,,,,,,,,,,,,,,,,,,,,,,,,,,,,,,,,,,,,,,,,,193.81523879198357,193.82653645891696,193.82653645891696,194.27687041694298,right,0.4439682918600738,None,390989,001,2023-11-13_15h32.48.892,main,2023.2.3,None,2023-11-13 15h33.01.438496 -0500,
