Even,Ten,Odd,Negative,Correct,trials.thisRepN,trials.thisTrialN,trials.thisN,trials.thisIndex,trials_2.thisRepN,trials_2.thisTrialN,trials_2.thisN,trials_2.thisIndex,trials_3.thisRepN,trials_3.thisTrialN,trials_3.thisN,trials_3.thisIndex,trials_4.thisRepN,trials_4.thisTrialN,trials_4.thisN,trials_4.thisIndex,trials_5.thisRepN,trials_5.thisTrialN,trials_5.thisN,trials_5.thisIndex,trials_6.thisRepN,trials_6.thisTrialN,trials_6.thisN,trials_6.thisIndex,trials_7.thisRepN,trials_7.thisTrialN,trials_7.thisN,trials_7.thisIndex,trials_8.thisRepN,trials_8.thisTrialN,trials_8.thisN,trials_8.thisIndex,trials_9.thisRepN,trials_9.thisTrialN,trials_9.thisN,trials_9.thisIndex,trials_10.thisRepN,trials_10.thisTrialN,trials_10.thisN,trials_10.thisIndex,trials_11.thisRepN,trials_11.thisTrialN,trials_11.thisN,trials_11.thisIndex,trials_12.thisRepN,trials_12.thisTrialN,trials_12.thisN,trials_12.thisIndex,trials_13.thisRepN,trials_13.thisTrialN,trials_13.thisN,trials_13.thisIndex,trials_14.thisRepN,trials_14.thisTrialN,trials_14.thisN,trials_14.thisIndex,trials_15.thisRepN,trials_15.thisTrialN,trials_15.thisN,trials_15.thisIndex,trials_16.thisRepN,trials_16.thisTrialN,trials_16.thisN,trials_16.thisIndex,thisRow.t,notes,starttrain.started,key_resp.started,text.started,starttrain.stopped,key_resp.keys,key_resp.rt,key_resp.duration,Even_Train.started,text_2.started,Even_Train.stopped,text_2.stopped,starttest.started,text_4.started,key_resp_2.started,starttest.stopped,key_resp_2.keys,key_resp_2.rt,key_resp_2.duration,Even_Test.started,text_5.started,key_resp_3.started,Even_Test.stopped,key_resp_3.keys,key_resp_3.rt,key_resp_3.duration,Ten_Train.started,text_7.started,Ten_Train.stopped,text_7.stopped,Ten_Test.started,text_8.started,key_resp_4.started,Ten_Test.stopped,key_resp_4.keys,key_resp_4.rt,key_resp_4.duration,Odd_Train.started,text_3.started,text_3.stopped,Odd_Train.stopped,Odd_Test.started,text_9.started,key_resp_6.started,Odd_Test.stopped,key_resp_6.keys,key_resp_6.rt,key_resp_6.duration,Negative_Train.started,text_10.started,text_10.stopped,Negative_Train.stopped,Negative_Test.started,text_11.started,key_resp_7.started,Negative_Test.stopped,key_resp_7.keys,key_resp_7.rt,key_resp_7.duration,Even2.started,text_12.started,text_12.stopped,Even2.stopped,even2test.started,text_13.started,key_resp_8.started,even2test.stopped,key_resp_8.keys,key_resp_8.rt,key_resp_8.duration,ten2.started,text_14.started,ten2.stopped,text_14.stopped,ten2test.started,text_15.started,key_resp_9.started,ten2test.stopped,key_resp_9.keys,key_resp_9.rt,key_resp_9.duration,odd2.started,text_16.started,odd2.stopped,text_16.stopped,odd2test.started,text_17.started,key_resp_10.started,odd2test.stopped,key_resp_10.keys,key_resp_10.rt,key_resp_10.duration,neg2.started,text_18.started,neg2.stopped,text_18.stopped,neg2test.started,text_19.started,key_resp_11.started,neg2test.stopped,key_resp_11.keys,key_resp_11.rt,key_resp_11.duration,participant,session,date,expName,psychopyVersion,frameRate,expStart,
,,,,,,,,,,,,,,,,,,,,,,,,,,,,,,,,,,,,,,,,,,,,,,,,,,,,,,,,,,,,,,,,,,,,,,,0.006925125140696764,0.017163458978757262,0.017163458978757262,35.51507537509315,space,35.48773958301172,None,,,,,,,,,,,,,,,,,,,,,,,,,,,,,,,,,,,,,,,,,,,,,,,,,,,,,,,,,,,,,,,,,,,,,,,,,,,,,,,,,,,,,,,,,,,,,,,,898866,001,2023-11-15_14h59.40.013,main,2023.2.3,None,2023-11-15 14h59.46.682682 -0500,
136,220,55,-59,,0,0,0,3,,,,,,,,,,,,,,,,,,,,,,,,,,,,,,,,,,,,,,,,,,,,,,,,,,,,,,,,,,,,,35.56301341718063,,,,,,,,,35.53693750011735,35.56301341718063,37.5154099999927,,,,,,,,,,,,,,,,,,,,,,,,,,,,,,,,,,,,,,,,,,,,,,,,,,,,,,,,,,,,,,,,,,,,,,,,,,,,,,,,,,,,,,,,,,,,,898866,001,2023-11-15_14h59.40.013,main,2023.2.3,None,2023-11-15 14h59.46.682682 -0500,
12,60,39,-845,,0,1,1,2,,,,,,,,,,,,,,,,,,,,,,,,,,,,,,,,,,,,,,,,,,,,,,,,,,,,,,,,,,,,,37.528826042078435,,,,,,,,,37.51582550001331,37.528826042078435,39.51234666700475,39.52066787518561,,,,,,,,,,,,,,,,,,,,,,,,,,,,,,,,,,,,,,,,,,,,,,,,,,,,,,,,,,,,,,,,,,,,,,,,,,,,,,,,,,,,,,,,,,,,898866,001,2023-11-15_14h59.40.013,main,2023.2.3,None,2023-11-15 14h59.46.682682 -0500,
32,20,7,-44,,0,2,2,1,,,,,,,,,,,,,,,,,,,,,,,,,,,,,,,,,,,,,,,,,,,,,,,,,,,,,,,,,,,,,39.52066787518561,,,,,,,,,39.51278454205021,39.52066787518561,41.51235033408739,41.520491500152275,,,,,,,,,,,,,,,,,,,,,,,,,,,,,,,,,,,,,,,,,,,,,,,,,,,,,,,,,,,,,,,,,,,,,,,,,,,,,,,,,,,,,,,,,,,,898866,001,2023-11-15_14h59.40.013,main,2023.2.3,None,2023-11-15 14h59.46.682682 -0500,
2,40,95,-39,,0,3,3,0,,,,,,,,,,,,,,,,,,,,,,,,,,,,,,,,,,,,,,,,,,,,,,,,,,,,,,,,,,,,,41.520491500152275,,,,,,,,,41.51278474996798,41.520491500152275,43.515162124997005,43.52877362514846,,,,,,,,,,,,,,,,,,,,,,,,,,,,,,,,,,,,,,,,,,,,,,,,,,,,,,,,,,,,,,,,,,,,,,,,,,,,,,,,,,,,,,,,,,,,898866,001,2023-11-15_14h59.40.013,main,2023.2.3,None,2023-11-15 14h59.46.682682 -0500,
,,,,,,,,,,,,,,,,,,,,,,,,,,,,,,,,,,,,,,,,,,,,,,,,,,,,,,,,,,,,,,,,,,,,,,,,,,,,,,,,,,43.515326250111684,43.52877362514846,43.52877362514846,51.66335875005461,space,8.125893001211807,None,,,,,,,,,,,,,,,,,,,,,,,,,,,,,,,,,,,,,,,,,,,,,,,,,,,,,,,,,,,,,,,,,,,,,,,,,,,,,,,,,,,,,898866,001,2023-11-15_14h59.40.013,main,2023.2.3,None,2023-11-15 14h59.46.682682 -0500,
"112, 216, 128","800, 900, 550","253, 173, 257","-65, -51, -27",1,,,,,0,0,0,3,,,,,,,,,,,,,,,,,,,,,,,,,,,,,,,,,,,,,,,,,,,,,,,,,,,,,,,,,51.700601499993354,,,,,,,,,,,,,,,,,,,,51.676234959159046,51.700601499993354,51.700601499993354,54.11446937499568,right,2.4017919169273227,None,,,,,,,,,,,,,,,,,,,,,,,,,,,,,,,,,,,,,,,,,,,,,,,,,,,,,,,,,,,,,,,,,,,,,,,,,,,,,,898866,001,2023-11-15_14h59.40.013,main,2023.2.3,None,2023-11-15 14h59.46.682682 -0500,
"41, 187, 53","272,295,67","6, 168, 34","64, 21, 165",0,,,,,0,1,1,0,,,,,,,,,,,,,,,,,,,,,,,,,,,,,,,,,,,,,,,,,,,,,,,,,,,,,,,,,54.16774112498388,,,,,,,,,,,,,,,,,,,,54.11551970918663,54.16774112498388,54.16774112498388,55.26239591697231,right,1.0941124588716775,None,,,,,,,,,,,,,,,,,,,,,,,,,,,,,,,,,,,,,,,,,,,,,,,,,,,,,,,,,,,,,,,,,,,,,,,,,,,,,,898866,001,2023-11-15_14h59.40.013,main,2023.2.3,None,2023-11-15 14h59.46.682682 -0500,
"91, 299, 31","282, 401, 66","134, 72, 188","136, 169, 0",0,,,,,0,2,2,5,,,,,,,,,,,,,,,,,,,,,,,,,,,,,,,,,,,,,,,,,,,,,,,,,,,,,,,,,55.27523491717875,,,,,,,,,,,,,,,,,,,,55.26299345912412,55.27523491717875,55.27523491717875,56.16243683407083,right,0.8804910420440137,None,,,,,,,,,,,,,,,,,,,,,,,,,,,,,,,,,,,,,,,,,,,,,,,,,,,,,,,,,,,,,,,,,,,,,,,,,,,,,,898866,001,2023-11-15_14h59.40.013,main,2023.2.3,None,2023-11-15 14h59.46.682682 -0500,
"122, 40, 18","270, 290, 60","465, 323, 97","-84, -100, -244",1,,,,,0,3,3,1,,,,,,,,,,,,,,,,,,,,,,,,,,,,,,,,,,,,,,,,,,,,,,,,,,,,,,,,,56.17636820906773,,,,,,,,,,,,,,,,,,,,56.16313787503168,56.17636820906773,56.17636820906773,57.732506334083155,right,1.5557156668510288,None,,,,,,,,,,,,,,,,,,,,,,,,,,,,,,,,,,,,,,,,,,,,,,,,,,,,,,,,,,,,,,,,,,,,,,,,,,,,,,898866,001,2023-11-15_14h59.40.013,main,2023.2.3,None,2023-11-15 14h59.46.682682 -0500,
"313, 9, 33","21, 204, 155","2, 142, 48","264, 198, 211",0,,,,,0,4,4,4,,,,,,,,,,,,,,,,,,,,,,,,,,,,,,,,,,,,,,,,,,,,,,,,,,,,,,,,,57.74457950005308,,,,,,,,,,,,,,,,,,,,57.73319104197435,57.74457950005308,57.74457950005308,58.6963066670578,right,0.9474742920137942,None,,,,,,,,,,,,,,,,,,,,,,,,,,,,,,,,,,,,,,,,,,,,,,,,,,,,,,,,,,,,,,,,,,,,,,,,,,,,,,898866,001,2023-11-15_14h59.40.013,main,2023.2.3,None,2023-11-15 14h59.46.682682 -0500,
"10, 70, 56","20, 200, 160","97, 93, 3","-174, -9, -92",1,,,,,0,5,5,2,,,,,,,,,,,,,,,,,,,,,,,,,,,,,,,,,,,,,,,,,,,,,,,,,,,,,,,,,58.70947604207322,,,,,,,,,,,,,,,,,,,,58.69773400016129,58.70947604207322,58.70947604207322,59.362541917013004,right,0.6468618339858949,None,,,,,,,,,,,,,,,,,,,,,,,,,,,,,,,,,,,,,,,,,,,,,,,,,,,,,,,,,,,,,,,,,,,,,,,,,,,,,,898866,001,2023-11-15_14h59.40.013,main,2023.2.3,None,2023-11-15 14h59.46.682682 -0500,
,,,,,,,,,,,,,,,,,,,,,,,,,,,,,,,,,,,,,,,,,,,,,,,,,,,,,,,,,,,,,,,,,,,,,,,59.363024584017694,59.36946800001897,59.36946800001897,61.95145191717893,space,2.5781944170594215,None,,,,,,,,,,,,,,,,,,,,,,,,,,,,,,,,,,,,,,,,,,,,,,,,,,,,,,,,,,,,,,,,,,,,,,,,,,,,,,,,,,,,,,,,,,,,,,,,898866,001,2023-11-15_14h59.40.013,main,2023.2.3,None,2023-11-15 14h59.46.682682 -0500,
32,20,7,-44,,,,,,,,,,0,0,0,1,,,,,,,,,,,,,,,,,,,,,,,,,,,,,,,,,,,,,,,,,,,,,,,,,,,,,61.96992229204625,,,,,,,,,,,,,,,,,,,,,,,,,,,61.95825087511912,61.96992229204625,63.96195504209027,,,,,,,,,,,,,,,,,,,,,,,,,,,,,,,,,,,,,,,,,,,,,,,,,,,,,,,,,,,,,,,,,,,,,,,,,,,898866,001,2023-11-15_14h59.40.013,main,2023.2.3,None,2023-11-15 14h59.46.682682 -0500,
12,60,39,-845,,,,,,,,,,0,1,1,2,,,,,,,,,,,,,,,,,,,,,,,,,,,,,,,,,,,,,,,,,,,,,,,,,,,,,63.96908025001176,,,,,,,,,,,,,,,,,,,,,,,,,,,63.96235241717659,63.96908025001176,65.96212245896459,,,,,,,,,,,,,,,,,,,,,,,,,,,,,,,,,,,,,,,,,,,,,,,,,,,,,,,,,,,,,,,,,,,,,,,,,,,898866,001,2023-11-15_14h59.40.013,main,2023.2.3,None,2023-11-15 14h59.46.682682 -0500,
2,40,95,-39,,,,,,,,,,0,2,2,0,,,,,,,,,,,,,,,,,,,,,,,,,,,,,,,,,,,,,,,,,,,,,,,,,,,,,65.96972416713834,,,,,,,,,,,,,,,,,,,,,,,,,,,65.96247837506235,65.96972416713834,67.9522649589926,,,,,,,,,,,,,,,,,,,,,,,,,,,,,,,,,,,,,,,,,,,,,,,,,,,,,,,,,,,,,,,,,,,,,,,,,,,898866,001,2023-11-15_14h59.40.013,main,2023.2.3,None,2023-11-15 14h59.46.682682 -0500,
136,220,55,-59,,,,,,,,,,0,3,3,3,,,,,,,,,,,,,,,,,,,,,,,,,,,,,,,,,,,,,,,,,,,,,,,,,,,,,67.96133604203351,,,,,,,,,,,,,,,,,,,,,,,,,,,67.95268241711892,67.96133604203351,69.94772666716017,69.96179566718638,,,,,,,,,,,,,,,,,,,,,,,,,,,,,,,,,,,,,,,,,,,,,,,,,,,,,,,,,,,,,,,,,,,,,,,,,,898866,001,2023-11-15_14h59.40.013,main,2023.2.3,None,2023-11-15 14h59.46.682682 -0500,
,,,,,,,,,,,,,,,,,,,,,,,,,,,,,,,,,,,,,,,,,,,,,,,,,,,,,,,,,,,,,,,,,,,,,,,,,,,,,,,,,,69.94780904217623,69.96179566718638,69.96179566718638,75.11244491697289,space,5.142663708887994,None,,,,,,,,,,,,,,,,,,,,,,,,,,,,,,,,,,,,,,,,,,,,,,,,,,,,,,,,,,,,,,,,,,,,,,,,,,,,,,,,,,,,,898866,001,2023-11-15_14h59.40.013,main,2023.2.3,None,2023-11-15 14h59.46.682682 -0500,
"41, 187, 53","272,295,67","6, 168, 34","64, 21, 165",0,,,,,,,,,,,,,0,0,0,0,,,,,,,,,,,,,,,,,,,,,,,,,,,,,,,,,,,,,,,,,,,,,,,,,75.13195954216644,,,,,,,,,,,,,,,,,,,,,,,,,,,,,,,75.12066654209048,75.13195954216644,75.13195954216644,75.981214083964,left,0.8460726251360029,None,,,,,,,,,,,,,,,,,,,,,,,,,,,,,,,,,,,,,,,,,,,,,,,,,,,,,,,,,,,,,,,,,,,898866,001,2023-11-15_14h59.40.013,main,2023.2.3,None,2023-11-15 14h59.46.682682 -0500,
"313, 9, 33","21, 204, 155","2, 142, 48","264, 198, 211",0,,,,,,,,,,,,,0,1,1,4,,,,,,,,,,,,,,,,,,,,,,,,,,,,,,,,,,,,,,,,,,,,,,,,,75.99390750005841,,,,,,,,,,,,,,,,,,,,,,,,,,,,,,,75.98330833413638,75.99390750005841,75.99390750005841,76.66226975014433,left,0.6595857089851052,None,,,,,,,,,,,,,,,,,,,,,,,,,,,,,,,,,,,,,,,,,,,,,,,,,,,,,,,,,,,,,,,,,,,898866,001,2023-11-15_14h59.40.013,main,2023.2.3,None,2023-11-15 14h59.46.682682 -0500,
"112, 216, 128","800, 900, 550","253, 173, 257","-65, -51, -27",1,,,,,,,,,,,,,0,2,2,3,,,,,,,,,,,,,,,,,,,,,,,,,,,,,,,,,,,,,,,,,,,,,,,,,76.67387070902623,,,,,,,,,,,,,,,,,,,,,,,,,,,,,,,76.6629884170834,76.67387070902623,76.67387070902623,78.94849675009027,left,2.2621837919577956,None,,,,,,,,,,,,,,,,,,,,,,,,,,,,,,,,,,,,,,,,,,,,,,,,,,,,,,,,,,,,,,,,,,,898866,001,2023-11-15_14h59.40.013,main,2023.2.3,None,2023-11-15 14h59.46.682682 -0500,
"91, 299, 31","282, 401, 66","134, 72, 188","136, 169, 0",0,,,,,,,,,,,,,0,3,3,5,,,,,,,,,,,,,,,,,,,,,,,,,,,,,,,,,,,,,,,,,,,,,,,,,78.96120495907962,,,,,,,,,,,,,,,,,,,,,,,,,,,,,,,78.9492293340154,78.96120495907962,78.96120495907962,81.37880570907146,left,2.408442666986957,None,,,,,,,,,,,,,,,,,,,,,,,,,,,,,,,,,,,,,,,,,,,,,,,,,,,,,,,,,,,,,,,,,,,898866,001,2023-11-15_14h59.40.013,main,2023.2.3,None,2023-11-15 14h59.46.682682 -0500,
"122, 40, 18","270, 290, 60","465, 323, 97","-84, -100, -244",1,,,,,,,,,,,,,0,4,4,1,,,,,,,,,,,,,,,,,,,,,,,,,,,,,,,,,,,,,,,,,,,,,,,,,81.39027158403769,,,,,,,,,,,,,,,,,,,,,,,,,,,,,,,81.37939191702753,81.39027158403769,81.39027158403769,83.59906570916064,left,2.1970138330943882,None,,,,,,,,,,,,,,,,,,,,,,,,,,,,,,,,,,,,,,,,,,,,,,,,,,,,,,,,,,,,,,,,,,,898866,001,2023-11-15_14h59.40.013,main,2023.2.3,None,2023-11-15 14h59.46.682682 -0500,
"10, 70, 56","20, 200, 160","97, 93, 3","-174, -9, -92",1,,,,,,,,,,,,,0,5,5,2,,,,,,,,,,,,,,,,,,,,,,,,,,,,,,,,,,,,,,,,,,,,,,,,,83.61116545903496,,,,,,,,,,,,,,,,,,,,,,,,,,,,,,,83.59979429212399,83.61116545903496,83.61116545903496,84.36214950005524,right,0.7497471261303872,None,,,,,,,,,,,,,,,,,,,,,,,,,,,,,,,,,,,,,,,,,,,,,,,,,,,,,,,,,,,,,,,,,,,898866,001,2023-11-15_14h59.40.013,main,2023.2.3,None,2023-11-15 14h59.46.682682 -0500,
,,,,,,,,,,,,,,,,,,,,,,,,,,,,,,,,,,,,,,,,,,,,,,,,,,,,,,,,,,,,,,,,,,,,,,,84.36263920902275,84.36758133396506,84.36758133396506,85.81492704199627,space,1.437614249996841,None,,,,,,,,,,,,,,,,,,,,,,,,,,,,,,,,,,,,,,,,,,,,,,,,,,,,,,,,,,,,,,,,,,,,,,,,,,,,,,,,,,,,,,,,,,,,,,,,898866,001,2023-11-15_14h59.40.013,main,2023.2.3,None,2023-11-15 14h59.46.682682 -0500,
2,40,95,-39,,,,,,,,,,,,,,,,,,0,0,0,0,,,,,,,,,,,,,,,,,,,,,,,,,,,,,,,,,,,,,,,,,,,,,85.83110275003128,,,,,,,,,,,,,,,,,,,,,,,,,,,,,,,,,,,,,,85.82046245899983,85.83110275003128,87.82860750006512,87.81472095916979,,,,,,,,,,,,,,,,,,,,,,,,,,,,,,,,,,,,,,,,,,,,,,,,,,,,,,,,,,,,,,,898866,001,2023-11-15_14h59.40.013,main,2023.2.3,None,2023-11-15 14h59.46.682682 -0500,
32,20,7,-44,,,,,,,,,,,,,,,,,,0,1,1,1,,,,,,,,,,,,,,,,,,,,,,,,,,,,,,,,,,,,,,,,,,,,,87.82860750006512,,,,,,,,,,,,,,,,,,,,,,,,,,,,,,,,,,,,,,87.81541370903142,87.82860750006512,89.820136875147,89.81209041713737,,,,,,,,,,,,,,,,,,,,,,,,,,,,,,,,,,,,,,,,,,,,,,,,,,,,,,,,,,,,,,,898866,001,2023-11-15_14h59.40.013,main,2023.2.3,None,2023-11-15 14h59.46.682682 -0500,
136,220,55,-59,,,,,,,,,,,,,,,,,,0,2,2,3,,,,,,,,,,,,,,,,,,,,,,,,,,,,,,,,,,,,,,,,,,,,,89.820136875147,,,,,,,,,,,,,,,,,,,,,,,,,,,,,,,,,,,,,,89.81249816715717,89.820136875147,91.82027587504126,91.81217241706327,,,,,,,,,,,,,,,,,,,,,,,,,,,,,,,,,,,,,,,,,,,,,,,,,,,,,,,,,,,,,,,898866,001,2023-11-15_14h59.40.013,main,2023.2.3,None,2023-11-15 14h59.46.682682 -0500,
12,60,39,-845,,,,,,,,,,,,,,,,,,0,3,3,2,,,,,,,,,,,,,,,,,,,,,,,,,,,,,,,,,,,,,,,,,,,,,91.82027587504126,,,,,,,,,,,,,,,,,,,,,,,,,,,,,,,,,,,,,,91.81259591714479,91.82027587504126,93.82884924998507,93.81392433401197,,,,,,,,,,,,,,,,,,,,,,,,,,,,,,,,,,,,,,,,,,,,,,,,,,,,,,,,,,,,,,,898866,001,2023-11-15_14h59.40.013,main,2023.2.3,None,2023-11-15 14h59.46.682682 -0500,
,,,,,,,,,,,,,,,,,,,,,,,,,,,,,,,,,,,,,,,,,,,,,,,,,,,,,,,,,,,,,,,,,,,,,,,,,,,,,,,,,,93.81408870918676,93.82884924998507,93.82884924998507,97.64552412508056,space,3.8082153340801597,None,,,,,,,,,,,,,,,,,,,,,,,,,,,,,,,,,,,,,,,,,,,,,,,,,,,,,,,,,,,,,,,,,,,,,,,,,,,,,,,,,,,,,898866,001,2023-11-15_14h59.40.013,main,2023.2.3,None,2023-11-15 14h59.46.682682 -0500,
"91, 299, 31","282, 401, 66","134, 72, 188","136, 169, 0",0,,,,,,,,,,,,,,,,,,,,,0,0,0,5,,,,,,,,,,,,,,,,,,,,,,,,,,,,,,,,,,,,,,,,,97.66616420913488,,,,,,,,,,,,,,,,,,,,,,,,,,,,,,,,,,,,,,,,,,97.65447950013913,97.66616420913488,97.66616420913488,99.062150250189,left,1.3853452510666102,None,,,,,,,,,,,,,,,,,,,,,,,,,,,,,,,,,,,,,,,,,,,,,,,,,,,,,,,,898866,001,2023-11-15_14h59.40.013,main,2023.2.3,None,2023-11-15 14h59.46.682682 -0500,
"313, 9, 33","21, 204, 155","2, 142, 48","264, 198, 211",0,,,,,,,,,,,,,,,,,,,,,0,1,1,4,,,,,,,,,,,,,,,,,,,,,,,,,,,,,,,,,,,,,,,,,99.07376787508838,,,,,,,,,,,,,,,,,,,,,,,,,,,,,,,,,,,,,,,,,,99.06297833402641,99.07376787508838,99.07376787508838,100.18167320918292,left,1.1055609588511288,None,,,,,,,,,,,,,,,,,,,,,,,,,,,,,,,,,,,,,,,,,,,,,,,,,,,,,,,,898866,001,2023-11-15_14h59.40.013,main,2023.2.3,None,2023-11-15 14h59.46.682682 -0500,
"122, 40, 18","270, 290, 60","465, 323, 97","-84, -100, -244",1,,,,,,,,,,,,,,,,,,,,,0,2,2,1,,,,,,,,,,,,,,,,,,,,,,,,,,,,,,,,,,,,,,,,,100.1944227500353,,,,,,,,,,,,,,,,,,,,,,,,,,,,,,,,,,,,,,,,,,100.18237637518905,100.1944227500353,100.1944227500353,101.13090087496676,right,0.924820041982457,None,,,,,,,,,,,,,,,,,,,,,,,,,,,,,,,,,,,,,,,,,,,,,,,,,,,,,,,,898866,001,2023-11-15_14h59.40.013,main,2023.2.3,None,2023-11-15 14h59.46.682682 -0500,
"10, 70, 56","20, 200, 160","97, 93, 3","-174, -9, -92",1,,,,,,,,,,,,,,,,,,,,,0,3,3,2,,,,,,,,,,,,,,,,,,,,,,,,,,,,,,,,,,,,,,,,,101.14471312519163,,,,,,,,,,,,,,,,,,,,,,,,,,,,,,,,,,,,,,,,,,101.13160895905457,101.14471312519163,101.14471312519163,102.0814142501913,right,0.9298002091236413,None,,,,,,,,,,,,,,,,,,,,,,,,,,,,,,,,,,,,,,,,,,,,,,,,,,,,,,,,898866,001,2023-11-15_14h59.40.013,main,2023.2.3,None,2023-11-15 14h59.46.682682 -0500,
"112, 216, 128","800, 900, 550","253, 173, 257","-65, -51, -27",1,,,,,,,,,,,,,,,,,,,,,0,4,4,3,,,,,,,,,,,,,,,,,,,,,,,,,,,,,,,,,,,,,,,,,102.09516054205596,,,,,,,,,,,,,,,,,,,,,,,,,,,,,,,,,,,,,,,,,,102.08178204204887,102.09516054205596,102.09516054205596,102.72870804206468,left,0.6190575419459492,None,,,,,,,,,,,,,,,,,,,,,,,,,,,,,,,,,,,,,,,,,,,,,,,,,,,,,,,,898866,001,2023-11-15_14h59.40.013,main,2023.2.3,None,2023-11-15 14h59.46.682682 -0500,
"41, 187, 53","272,295,67","6, 168, 34","64, 21, 165",0,,,,,,,,,,,,,,,,,,,,,0,5,5,0,,,,,,,,,,,,,,,,,,,,,,,,,,,,,,,,,,,,,,,,,102.73903437517583,,,,,,,,,,,,,,,,,,,,,,,,,,,,,,,,,,,,,,,,,,102.72924758400768,102.73903437517583,102.73903437517583,104.082427542191,left,1.33846729202196,None,,,,,,,,,,,,,,,,,,,,,,,,,,,,,,,,,,,,,,,,,,,,,,,,,,,,,,,,898866,001,2023-11-15_14h59.40.013,main,2023.2.3,None,2023-11-15 14h59.46.682682 -0500,
,,,,,,,,,,,,,,,,,,,,,,,,,,,,,,,,,,,,,,,,,,,,,,,,,,,,,,,,,,,,,,,,,,,,,,,104.08270687516779,104.09517750004306,104.09517750004306,106.25003254204057,space,2.1444844589568675,None,,,,,,,,,,,,,,,,,,,,,,,,,,,,,,,,,,,,,,,,,,,,,,,,,,,,,,,,,,,,,,,,,,,,,,,,,,,,,,,,,,,,,,,,,,,,,,,,898866,001,2023-11-15_14h59.40.013,main,2023.2.3,None,2023-11-15 14h59.46.682682 -0500,
136,220,55,-59,,,,,,,,,,,,,,,,,,,,,,,,,,0,0,0,3,,,,,,,,,,,,,,,,,,,,,,,,,,,,,,,,,,,,,106.26573683414608,,,,,,,,,,,,,,,,,,,,,,,,,,,,,,,,,,,,,,,,,,,,,,,,,106.25450925016776,106.26573683414608,108.26174683403224,108.24893904197961,,,,,,,,,,,,,,,,,,,,,,,,,,,,,,,,,,,,,,,,,,,,,,,,,,,,898866,001,2023-11-15_14h59.40.013,main,2023.2.3,None,2023-11-15 14h59.46.682682 -0500,
2,40,95,-39,,,,,,,,,,,,,,,,,,,,,,,,,,0,1,1,0,,,,,,,,,,,,,,,,,,,,,,,,,,,,,,,,,,,,,108.26174683403224,,,,,,,,,,,,,,,,,,,,,,,,,,,,,,,,,,,,,,,,,,,,,,,,,108.24928937503137,108.26174683403224,110.25223879213445,110.24526616698131,,,,,,,,,,,,,,,,,,,,,,,,,,,,,,,,,,,,,,,,,,,,,,,,,,,,898866,001,2023-11-15_14h59.40.013,main,2023.2.3,None,2023-11-15 14h59.46.682682 -0500,
32,20,7,-44,,,,,,,,,,,,,,,,,,,,,,,,,,0,2,2,1,,,,,,,,,,,,,,,,,,,,,,,,,,,,,,,,,,,,,110.25223879213445,,,,,,,,,,,,,,,,,,,,,,,,,,,,,,,,,,,,,,,,,,,,,,,,,110.24560508411378,110.25223879213445,112.26190454210155,112.24685950018466,,,,,,,,,,,,,,,,,,,,,,,,,,,,,,,,,,,,,,,,,,,,,,,,,,,,898866,001,2023-11-15_14h59.40.013,main,2023.2.3,None,2023-11-15 14h59.46.682682 -0500,
12,60,39,-845,,,,,,,,,,,,,,,,,,,,,,,,,,0,3,3,2,,,,,,,,,,,,,,,,,,,,,,,,,,,,,,,,,,,,,112.26190454210155,,,,,,,,,,,,,,,,,,,,,,,,,,,,,,,,,,,,,,,,,,,,,,,,,112.24728366709314,112.26190454210155,114.26163141708821,114.24775491701439,,,,,,,,,,,,,,,,,,,,,,,,,,,,,,,,,,,,,,,,,,,,,,,,,,,,898866,001,2023-11-15_14h59.40.013,main,2023.2.3,None,2023-11-15 14h59.46.682682 -0500,
,,,,,,,,,,,,,,,,,,,,,,,,,,,,,,,,,,,,,,,,,,,,,,,,,,,,,,,,,,,,,,,,,,,,,,,,,,,,,,,,,,114.24782625003718,114.26163141708821,114.26163141708821,117.53391550015658,space,3.261898084077984,None,,,,,,,,,,,,,,,,,,,,,,,,,,,,,,,,,,,,,,,,,,,,,,,,,,,,,,,,,,,,,,,,,,,,,,,,,,,,,,,,,,,,,898866,001,2023-11-15_14h59.40.013,main,2023.2.3,None,2023-11-15 14h59.46.682682 -0500,
"313, 9, 33","21, 204, 155","2, 142, 48","264, 198, 211",0,,,,,,,,,,,,,,,,,,,,,,,,,,,,,0,0,0,4,,,,,,,,,,,,,,,,,,,,,,,,,,,,,,,,,117.54904650012031,,,,,,,,,,,,,,,,,,,,,,,,,,,,,,,,,,,,,,,,,,,,,,,,,,,,,117.53952841716819,117.54904650012031,117.54904650012031,119.48149083415046,left,1.9212419169489294,None,,,,,,,,,,,,,,,,,,,,,,,,,,,,,,,,,,,,,,,,,,,,,898866,001,2023-11-15_14h59.40.013,main,2023.2.3,None,2023-11-15 14h59.46.682682 -0500,
"91, 299, 31","282, 401, 66","134, 72, 188","136, 169, 0",0,,,,,,,,,,,,,,,,,,,,,,,,,,,,,0,1,1,5,,,,,,,,,,,,,,,,,,,,,,,,,,,,,,,,,119.49497483414598,,,,,,,,,,,,,,,,,,,,,,,,,,,,,,,,,,,,,,,,,,,,,,,,,,,,,119.48205141699873,119.49497483414598,119.49497483414598,120.39858945901506,left,0.8964182918425649,None,,,,,,,,,,,,,,,,,,,,,,,,,,,,,,,,,,,,,,,,,,,,,898866,001,2023-11-15_14h59.40.013,main,2023.2.3,None,2023-11-15 14h59.46.682682 -0500,
"41, 187, 53","272,295,67","6, 168, 34","64, 21, 165",0,,,,,,,,,,,,,,,,,,,,,,,,,,,,,0,2,2,0,,,,,,,,,,,,,,,,,,,,,,,,,,,,,,,,,120.41103937500156,,,,,,,,,,,,,,,,,,,,,,,,,,,,,,,,,,,,,,,,,,,,,,,,,,,,,120.39983279211447,120.41103937500156,120.41103937500156,121.37857408402488,left,0.9572251669596881,None,,,,,,,,,,,,,,,,,,,,,,,,,,,,,,,,,,,,,,,,,,,,,898866,001,2023-11-15_14h59.40.013,main,2023.2.3,None,2023-11-15 14h59.46.682682 -0500,
"10, 70, 56","20, 200, 160","97, 93, 3","-174, -9, -92",1,,,,,,,,,,,,,,,,,,,,,,,,,,,,,0,3,3,2,,,,,,,,,,,,,,,,,,,,,,,,,,,,,,,,,121.38962591718882,,,,,,,,,,,,,,,,,,,,,,,,,,,,,,,,,,,,,,,,,,,,,,,,,,,,,121.3793084169738,121.38962591718882,121.38962591718882,122.36456383415498,right,0.9745912090875208,None,,,,,,,,,,,,,,,,,,,,,,,,,,,,,,,,,,,,,,,,,,,,,898866,001,2023-11-15_14h59.40.013,main,2023.2.3,None,2023-11-15 14h59.46.682682 -0500,
"122, 40, 18","270, 290, 60","465, 323, 97","-84, -100, -244",1,,,,,,,,,,,,,,,,,,,,,,,,,,,,,0,4,4,1,,,,,,,,,,,,,,,,,,,,,,,,,,,,,,,,,122.3783412501216,,,,,,,,,,,,,,,,,,,,,,,,,,,,,,,,,,,,,,,,,,,,,,,,,,,,,122.36497079208493,122.3783412501216,122.3783412501216,122.94752550008707,right,0.5606612509582192,None,,,,,,,,,,,,,,,,,,,,,,,,,,,,,,,,,,,,,,,,,,,,,898866,001,2023-11-15_14h59.40.013,main,2023.2.3,None,2023-11-15 14h59.46.682682 -0500,
"112, 216, 128","800, 900, 550","253, 173, 257","-65, -51, -27",1,,,,,,,,,,,,,,,,,,,,,,,,,,,,,0,5,5,3,,,,,,,,,,,,,,,,,,,,,,,,,,,,,,,,,122.96093975007534,,,,,,,,,,,,,,,,,,,,,,,,,,,,,,,,,,,,,,,,,,,,,,,,,,,,,122.94828379200771,122.96093975007534,122.96093975007534,123.61278775008395,right,0.6402240840252489,None,,,,,,,,,,,,,,,,,,,,,,,,,,,,,,,,,,,,,,,,,,,,,898866,001,2023-11-15_14h59.40.013,main,2023.2.3,None,2023-11-15 14h59.46.682682 -0500,
,,,,,,,,,,,,,,,,,,,,,,,,,,,,,,,,,,,,,,,,,,,,,,,,,,,,,,,,,,,,,,,,,,,,,,,123.61379400012083,123.62188429199159,123.62188429199159,125.7812184591312,space,2.1449289589654654,None,,,,,,,,,,,,,,,,,,,,,,,,,,,,,,,,,,,,,,,,,,,,,,,,,,,,,,,,,,,,,,,,,,,,,,,,,,,,,,,,,,,,,,,,,,,,,,,,898866,001,2023-11-15_14h59.40.013,main,2023.2.3,None,2023-11-15 14h59.46.682682 -0500,
4,80,33,-4,,,,,,,,,,,,,,,,,,,,,,,,,,,,,,,,,,0,0,0,5,,,,,,,,,,,,,,,,,,,,,,,,,,,,,125.79818679206073,,,,,,,,,,,,,,,,,,,,,,,,,,,,,,,,,,,,,,,,,,,,,,,,,,,,,,,,,,,,125.78708475013264,125.79818679206073,127.79511170904152,127.781097084051,,,,,,,,,,,,,,,,,,,,,,,,,,,,,,,,,,,,,,,,,898866,001,2023-11-15_14h59.40.013,main,2023.2.3,None,2023-11-15 14h59.46.682682 -0500,
8,640,3,-62,,,,,,,,,,,,,,,,,,,,,,,,,,,,,,,,,,0,1,1,1,,,,,,,,,,,,,,,,,,,,,,,,,,,,,127.79511170904152,,,,,,,,,,,,,,,,,,,,,,,,,,,,,,,,,,,,,,,,,,,,,,,,,,,,,,,,,,,,127.78182970918715,127.79511170904152,129.79504720913246,129.7804247920867,,,,,,,,,,,,,,,,,,,,,,,,,,,,,,,,,,,,,,,,,898866,001,2023-11-15_14h59.40.013,main,2023.2.3,None,2023-11-15 14h59.46.682682 -0500,
6,20,21,-28,,,,,,,,,,,,,,,,,,,,,,,,,,,,,,,,,,0,2,2,0,,,,,,,,,,,,,,,,,,,,,,,,,,,,,129.79504720913246,,,,,,,,,,,,,,,,,,,,,,,,,,,,,,,,,,,,,,,,,,,,,,,,,,,,,,,,,,,,129.78083266713656,129.79504720913246,,131.7814567501191,,,,,,,,,,,,,,,,,,,,,,,,,,,,,,,,,,,,,,,,,898866,001,2023-11-15_14h59.40.013,main,2023.2.3,None,2023-11-15 14h59.46.682682 -0500,
12,260,51,-111,,,,,,,,,,,,,,,,,,,,,,,,,,,,,,,,,,0,3,3,2,,,,,,,,,,,,,,,,,,,,,,,,,,,,,131.7951552500017,,,,,,,,,,,,,,,,,,,,,,,,,,,,,,,,,,,,,,,,,,,,,,,,,,,,,,,,,,,,131.78232770902105,131.7951552500017,133.79503979207948,133.78108900017105,,,,,,,,,,,,,,,,,,,,,,,,,,,,,,,,,,,,,,,,,898866,001,2023-11-15_14h59.40.013,main,2023.2.3,None,2023-11-15 14h59.46.682682 -0500,
98,170,77,-100,,,,,,,,,,,,,,,,,,,,,,,,,,,,,,,,,,0,4,4,3,,,,,,,,,,,,,,,,,,,,,,,,,,,,,133.79503979207948,,,,,,,,,,,,,,,,,,,,,,,,,,,,,,,,,,,,,,,,,,,,,,,,,,,,,,,,,,,,133.78179829218425,133.79503979207948,135.79501383402385,135.78053250000812,,,,,,,,,,,,,,,,,,,,,,,,,,,,,,,,,,,,,,,,,898866,001,2023-11-15_14h59.40.013,main,2023.2.3,None,2023-11-15 14h59.46.682682 -0500,
40,30,91,-3,,,,,,,,,,,,,,,,,,,,,,,,,,,,,,,,,,0,5,5,4,,,,,,,,,,,,,,,,,,,,,,,,,,,,,135.79501383402385,,,,,,,,,,,,,,,,,,,,,,,,,,,,,,,,,,,,,,,,,,,,,,,,,,,,,,,,,,,,135.78094466705807,135.79501383402385,137.79719037516043,137.78034504200332,,,,,,,,,,,,,,,,,,,,,,,,,,,,,,,,,,,,,,,,,898866,001,2023-11-15_14h59.40.013,main,2023.2.3,None,2023-11-15 14h59.46.682682 -0500,
,,,,,,,,,,,,,,,,,,,,,,,,,,,,,,,,,,,,,,,,,,,,,,,,,,,,,,,,,,,,,,,,,,,,,,,,,,,,,,,,,,137.78051499999128,137.79719037516043,137.79719037516043,140.1156103340909,space,2.3100566258654,None,,,,,,,,,,,,,,,,,,,,,,,,,,,,,,,,,,,,,,,,,,,,,,,,,,,,,,,,,,,,,,,,,,,,,,,,,,,,,,,,,,,,,898866,001,2023-11-15_14h59.40.013,main,2023.2.3,None,2023-11-15 14h59.46.682682 -0500,
"287,53,49","71, 24, 603","86, 150, 140","248, 9, 139",0,,,,,,,,,,,,,,,,,,,,,,,,,,,,,,,,,,,,,0,0,0,4,,,,,,,,,,,,,,,,,,,,,,,,,140.1320583340712,,,,,,,,,,,,,,,,,,,,,,,,,,,,,,,,,,,,,,,,,,,,,,,,,,,,,,,,,,,,,,,,140.12119541713037,140.1320583340712,140.1320583340712,140.9648961671628,left,0.8189567090012133,None,,,,,,,,,,,,,,,,,,,,,,,,,,,,,,,,,,898866,001,2023-11-15_14h59.40.013,main,2023.2.3,None,2023-11-15 14h59.46.682682 -0500,
"222, 50, 90","280, 20, 170","583, 261, 513","-160, -50, -266",1,,,,,,,,,,,,,,,,,,,,,,,,,,,,,,,,,,,,,0,1,1,2,,,,,,,,,,,,,,,,,,,,,,,,,140.97822050005198,,,,,,,,,,,,,,,,,,,,,,,,,,,,,,,,,,,,,,,,,,,,,,,,,,,,,,,,,,,,,,,,140.96629137499258,140.97822050005198,140.97822050005198,142.02872983412817,right,1.0380245419219136,None,,,,,,,,,,,,,,,,,,,,,,,,,,,,,,,,,,898866,001,2023-11-15_14h59.40.013,main,2023.2.3,None,2023-11-15 14h59.46.682682 -0500,
"400, 76, 14","120, 270, 20","25, 87, 119","-16, -40, -27",1,,,,,,,,,,,,,,,,,,,,,,,,,,,,,,,,,,,,,0,2,2,3,,,,,,,,,,,,,,,,,,,,,,,,,142.04015866713598,,,,,,,,,,,,,,,,,,,,,,,,,,,,,,,,,,,,,,,,,,,,,,,,,,,,,,,,,,,,,,,,142.02945654210635,142.04015866713598,142.04015866713598,143.178592834156,right,1.1354278759099543,None,,,,,,,,,,,,,,,,,,,,,,,,,,,,,,,,,,898866,001,2023-11-15_14h59.40.013,main,2023.2.3,None,2023-11-15 14h59.46.682682 -0500,
"221,63,111","22, 44, 509","162, 70, 118","219, 288, 39",0,,,,,,,,,,,,,,,,,,,,,,,,,,,,,,,,,,,,,0,3,3,0,,,,,,,,,,,,,,,,,,,,,,,,,143.18885412509553,,,,,,,,,,,,,,,,,,,,,,,,,,,,,,,,,,,,,,,,,,,,,,,,,,,,,,,,,,,,,,,,143.17931920918636,143.18885412509553,143.18885412509553,143.89866370917298,left,0.7063021259382367,None,,,,,,,,,,,,,,,,,,,,,,,,,,,,,,,,,,898866,001,2023-11-15_14h59.40.013,main,2023.2.3,None,2023-11-15 14h59.46.682682 -0500,
"189, 77, 95","66, 138, 284","154, 166, 92","261, 67, 45",0,,,,,,,,,,,,,,,,,,,,,,,,,,,,,,,,,,,,,0,4,4,1,,,,,,,,,,,,,,,,,,,,,,,,,143.91096041700803,,,,,,,,,,,,,,,,,,,,,,,,,,,,,,,,,,,,,,,,,,,,,,,,,,,,,,,,,,,,,,,,143.89929608418606,143.91096041700803,143.91096041700803,144.6620019590482,left,0.7485190420411527,None,,,,,,,,,,,,,,,,,,,,,,,,,,,,,,,,,,898866,001,2023-11-15_14h59.40.013,main,2023.2.3,None,2023-11-15 14h59.46.682682 -0500,
"42, 88, 20","180, 60, 50","463, 515, 119","-30, -61, -122",1,,,,,,,,,,,,,,,,,,,,,,,,,,,,,,,,,,,,,0,5,5,5,,,,,,,,,,,,,,,,,,,,,,,,,144.67469995911233,,,,,,,,,,,,,,,,,,,,,,,,,,,,,,,,,,,,,,,,,,,,,,,,,,,,,,,,,,,,,,,,144.6627173339948,144.67469995911233,144.67469995911233,145.31192645896226,right,0.6244049170054495,None,,,,,,,,,,,,,,,,,,,,,,,,,,,,,,,,,,898866,001,2023-11-15_14h59.40.013,main,2023.2.3,None,2023-11-15 14h59.46.682682 -0500,
,,,,,,,,,,,,,,,,,,,,,,,,,,,,,,,,,,,,,,,,,,,,,,,,,,,,,,,,,,,,,,,,,,,,,,,145.31242049997672,145.31887041707523,145.31887041707523,146.4636047091335,space,1.1379372919909656,None,,,,,,,,,,,,,,,,,,,,,,,,,,,,,,,,,,,,,,,,,,,,,,,,,,,,,,,,,,,,,,,,,,,,,,,,,,,,,,,,,,,,,,,,,,,,,,,,898866,001,2023-11-15_14h59.40.013,main,2023.2.3,None,2023-11-15 14h59.46.682682 -0500,
8,640,3,-62,,,,,,,,,,,,,,,,,,,,,,,,,,,,,,,,,,,,,,,,,,0,0,0,1,,,,,,,,,,,,,,,,,,,,,146.483614084078,,,,,,,,,,,,,,,,,,,,,,,,,,,,,,,,,,,,,,,,,,,,,,,,,,,,,,,,,,,,,,,,,,,,,,,146.4732748749666,146.483614084078,148.4642287499737,,,,,,,,,,,,,,,,,,,,,,,,,,,,,,,898866,001,2023-11-15_14h59.40.013,main,2023.2.3,None,2023-11-15 14h59.46.682682 -0500,
40,30,91,-3,,,,,,,,,,,,,,,,,,,,,,,,,,,,,,,,,,,,,,,,,,0,1,1,4,,,,,,,,,,,,,,,,,,,,,148.4782905841712,,,,,,,,,,,,,,,,,,,,,,,,,,,,,,,,,,,,,,,,,,,,,,,,,,,,,,,,,,,,,,,,,,,,,,,148.46451858407818,148.4782905841712,150.4617565420922,150.467913917033,,,,,,,,,,,,,,,,,,,,,,,,,,,,,,898866,001,2023-11-15_14h59.40.013,main,2023.2.3,None,2023-11-15 14h59.46.682682 -0500,
4,80,33,-4,,,,,,,,,,,,,,,,,,,,,,,,,,,,,,,,,,,,,,,,,,0,2,2,5,,,,,,,,,,,,,,,,,,,,,150.467913917033,,,,,,,,,,,,,,,,,,,,,,,,,,,,,,,,,,,,,,,,,,,,,,,,,,,,,,,,,,,,,,,,,,,,,,,150.4620344999712,150.467913917033,152.46183158410713,152.46983516705222,,,,,,,,,,,,,,,,,,,,,,,,,,,,,,898866,001,2023-11-15_14h59.40.013,main,2023.2.3,None,2023-11-15 14h59.46.682682 -0500,
12,260,51,-111,,,,,,,,,,,,,,,,,,,,,,,,,,,,,,,,,,,,,,,,,,0,3,3,2,,,,,,,,,,,,,,,,,,,,,152.46983516705222,,,,,,,,,,,,,,,,,,,,,,,,,,,,,,,,,,,,,,,,,,,,,,,,,,,,,,,,,,,,,,,,,,,,,,,152.46226850012317,152.46983516705222,154.4656151670497,,,,,,,,,,,,,,,,,,,,,,,,,,,,,,,898866,001,2023-11-15_14h59.40.013,main,2023.2.3,None,2023-11-15 14h59.46.682682 -0500,
6,20,21,-28,,,,,,,,,,,,,,,,,,,,,,,,,,,,,,,,,,,,,,,,,,0,4,4,0,,,,,,,,,,,,,,,,,,,,,154.4782889999915,,,,,,,,,,,,,,,,,,,,,,,,,,,,,,,,,,,,,,,,,,,,,,,,,,,,,,,,,,,,,,,,,,,,,,,154.46649516699836,154.4782889999915,156.46405391697772,,,,,,,,,,,,,,,,,,,,,,,,,,,,,,,898866,001,2023-11-15_14h59.40.013,main,2023.2.3,None,2023-11-15 14h59.46.682682 -0500,
98,170,77,-100,,,,,,,,,,,,,,,,,,,,,,,,,,,,,,,,,,,,,,,,,,0,5,5,3,,,,,,,,,,,,,,,,,,,,,156.47825024998747,,,,,,,,,,,,,,,,,,,,,,,,,,,,,,,,,,,,,,,,,,,,,,,,,,,,,,,,,,,,,,,,,,,,,,,156.46488908398896,156.47825024998747,158.46407654206268,,,,,,,,,,,,,,,,,,,,,,,,,,,,,,,898866,001,2023-11-15_14h59.40.013,main,2023.2.3,None,2023-11-15 14h59.46.682682 -0500,
,,,,,,,,,,,,,,,,,,,,,,,,,,,,,,,,,,,,,,,,,,,,,,,,,,,,,,,,,,,,,,,,,,,,,,,,,,,,,,,,,,158.46425845916383,158.4783016250003,158.4783016250003,159.71180145908147,space,1.231934417039156,None,,,,,,,,,,,,,,,,,,,,,,,,,,,,,,,,,,,,,,,,,,,,,,,,,,,,,,,,,,,,,,,,,,,,,,,,,,,,,,,,,,,,,898866,001,2023-11-15_14h59.40.013,main,2023.2.3,None,2023-11-15 14h59.46.682682 -0500,
"221,63,111","22, 44, 509","162, 70, 118","219, 288, 39",0,,,,,,,,,,,,,,,,,,,,,,,,,,,,,,,,,,,,,,,,,,,,,0,0,0,0,,,,,,,,,,,,,,,,,159.7300820001401,,,,,,,,,,,,,,,,,,,,,,,,,,,,,,,,,,,,,,,,,,,,,,,,,,,,,,,,,,,,,,,,,,,,,,,,,,,159.7189216669649,159.7300820001401,159.7300820001401,161.01637012511492,left,1.2793324168305844,None,,,,,,,,,,,,,,,,,,,,,,,898866,001,2023-11-15_14h59.40.013,main,2023.2.3,None,2023-11-15 14h59.46.682682 -0500,
"222, 50, 90","280, 20, 170","583, 261, 513","-160, -50, -266",1,,,,,,,,,,,,,,,,,,,,,,,,,,,,,,,,,,,,,,,,,,,,,0,1,1,2,,,,,,,,,,,,,,,,,161.02741300011985,,,,,,,,,,,,,,,,,,,,,,,,,,,,,,,,,,,,,,,,,,,,,,,,,,,,,,,,,,,,,,,,,,,,,,,,,,,161.01719900011085,161.02741300011985,161.02741300011985,162.33163270913064,right,1.298315874999389,None,,,,,,,,,,,,,,,,,,,,,,,898866,001,2023-11-15_14h59.40.013,main,2023.2.3,None,2023-11-15 14h59.46.682682 -0500,
"400, 76, 14","120, 270, 20","25, 87, 119","-16, -40, -27",1,,,,,,,,,,,,,,,,,,,,,,,,,,,,,,,,,,,,,,,,,,,,,0,2,2,3,,,,,,,,,,,,,,,,,162.3441233751364,,,,,,,,,,,,,,,,,,,,,,,,,,,,,,,,,,,,,,,,,,,,,,,,,,,,,,,,,,,,,,,,,,,,,,,,,,,162.3322585420683,162.3441233751364,162.3441233751364,162.96418795897625,right,0.6044439170509577,None,,,,,,,,,,,,,,,,,,,,,,,898866,001,2023-11-15_14h59.40.013,main,2023.2.3,None,2023-11-15 14h59.46.682682 -0500,
"287,53,49","71, 24, 603","86, 150, 140","248, 9, 139",0,,,,,,,,,,,,,,,,,,,,,,,,,,,,,,,,,,,,,,,,,,,,,0,3,3,4,,,,,,,,,,,,,,,,,162.97792491712607,,,,,,,,,,,,,,,,,,,,,,,,,,,,,,,,,,,,,,,,,,,,,,,,,,,,,,,,,,,,,,,,,,,,,,,,,,,162.96490716701373,162.97792491712607,162.97792491712607,163.54799729213119,left,0.5599514169152826,None,,,,,,,,,,,,,,,,,,,,,,,898866,001,2023-11-15_14h59.40.013,main,2023.2.3,None,2023-11-15 14h59.46.682682 -0500,
"189, 77, 95","66, 138, 284","154, 166, 92","261, 67, 45",0,,,,,,,,,,,,,,,,,,,,,,,,,,,,,,,,,,,,,,,,,,,,,0,4,4,1,,,,,,,,,,,,,,,,,163.63120762514882,,,,,,,,,,,,,,,,,,,,,,,,,,,,,,,,,,,,,,,,,,,,,,,,,,,,,,,,,,,,,,,,,,,,,,,,,,,163.54846741701476,163.63120762514882,163.63120762514882,164.34792933403514,left,0.7080088758375496,None,,,,,,,,,,,,,,,,,,,,,,,898866,001,2023-11-15_14h59.40.013,main,2023.2.3,None,2023-11-15 14h59.46.682682 -0500,
"42, 88, 20","180, 60, 50","463, 515, 119","-30, -61, -122",1,,,,,,,,,,,,,,,,,,,,,,,,,,,,,,,,,,,,,,,,,,,,,0,5,5,5,,,,,,,,,,,,,,,,,164.36096270917915,,,,,,,,,,,,,,,,,,,,,,,,,,,,,,,,,,,,,,,,,,,,,,,,,,,,,,,,,,,,,,,,,,,,,,,,,,,164.34852404217236,164.36096270917915,164.36096270917915,165.0969328340143,right,0.7257364590186626,None,,,,,,,,,,,,,,,,,,,,,,,898866,001,2023-11-15_14h59.40.013,main,2023.2.3,None,2023-11-15 14h59.46.682682 -0500,
,,,,,,,,,,,,,,,,,,,,,,,,,,,,,,,,,,,,,,,,,,,,,,,,,,,,,,,,,,,,,,,,,,,,,,,165.09734412515536,165.11377175012603,165.11377175012603,166.49519991711713,space,1.3677288750186563,None,,,,,,,,,,,,,,,,,,,,,,,,,,,,,,,,,,,,,,,,,,,,,,,,,,,,,,,,,,,,,,,,,,,,,,,,,,,,,,,,,,,,,,,,,,,,,,,,898866,001,2023-11-15_14h59.40.013,main,2023.2.3,None,2023-11-15 14h59.46.682682 -0500,
8,640,3,-62,,,,,,,,,,,,,,,,,,,,,,,,,,,,,,,,,,,,,,,,,,,,,,,,,,0,0,0,1,,,,,,,,,,,,,166.5133285841439,,,,,,,,,,,,,,,,,,,,,,,,,,,,,,,,,,,,,,,,,,,,,,,,,,,,,,,,,,,,,,,,,,,,,,,,,,,,,,,,,,166.5020452500321,166.5133285841439,168.4979702499695,,,,,,,,,,,,,,,,,,,,898866,001,2023-11-15_14h59.40.013,main,2023.2.3,None,2023-11-15 14h59.46.682682 -0500,
4,80,33,-4,,,,,,,,,,,,,,,,,,,,,,,,,,,,,,,,,,,,,,,,,,,,,,,,,,0,1,1,5,,,,,,,,,,,,,168.51154341711663,,,,,,,,,,,,,,,,,,,,,,,,,,,,,,,,,,,,,,,,,,,,,,,,,,,,,,,,,,,,,,,,,,,,,,,,,,,,,,,,,,168.49838837515563,168.51154341711663,170.49765254207887,,,,,,,,,,,,,,,,,,,,898866,001,2023-11-15_14h59.40.013,main,2023.2.3,None,2023-11-15 14h59.46.682682 -0500,
6,20,21,-28,,,,,,,,,,,,,,,,,,,,,,,,,,,,,,,,,,,,,,,,,,,,,,,,,,0,2,2,0,,,,,,,,,,,,,170.51153979217634,,,,,,,,,,,,,,,,,,,,,,,,,,,,,,,,,,,,,,,,,,,,,,,,,,,,,,,,,,,,,,,,,,,,,,,,,,,,,,,,,,170.49827650003135,170.51153979217634,172.49751150002703,,,,,,,,,,,,,,,,,,,,898866,001,2023-11-15_14h59.40.013,main,2023.2.3,None,2023-11-15 14h59.46.682682 -0500,
12,260,51,-111,,,,,,,,,,,,,,,,,,,,,,,,,,,,,,,,,,,,,,,,,,,,,,,,,,0,3,3,2,,,,,,,,,,,,,172.51153670903295,,,,,,,,,,,,,,,,,,,,,,,,,,,,,,,,,,,,,,,,,,,,,,,,,,,,,,,,,,,,,,,,,,,,,,,,,,,,,,,,,,172.49780012504198,172.51153670903295,174.49496620916761,174.5030602919869,,,,,,,,,,,,,,,,,,,898866,001,2023-11-15_14h59.40.013,main,2023.2.3,None,2023-11-15 14h59.46.682682 -0500,
40,30,91,-3,,,,,,,,,,,,,,,,,,,,,,,,,,,,,,,,,,,,,,,,,,,,,,,,,,0,4,4,4,,,,,,,,,,,,,174.5030602919869,,,,,,,,,,,,,,,,,,,,,,,,,,,,,,,,,,,,,,,,,,,,,,,,,,,,,,,,,,,,,,,,,,,,,,,,,,,,,,,,,,174.49538562516682,174.5030602919869,176.4954472091049,176.5011499170214,,,,,,,,,,,,,,,,,,,898866,001,2023-11-15_14h59.40.013,main,2023.2.3,None,2023-11-15 14h59.46.682682 -0500,
98,170,77,-100,,,,,,,,,,,,,,,,,,,,,,,,,,,,,,,,,,,,,,,,,,,,,,,,,,0,5,5,3,,,,,,,,,,,,,176.5011499170214,,,,,,,,,,,,,,,,,,,,,,,,,,,,,,,,,,,,,,,,,,,,,,,,,,,,,,,,,,,,,,,,,,,,,,,,,,,,,,,,,,176.49595850007609,176.5011499170214,178.49629312497564,,,,,,,,,,,,,,,,,,,,898866,001,2023-11-15_14h59.40.013,main,2023.2.3,None,2023-11-15 14h59.46.682682 -0500,
,,,,,,,,,,,,,,,,,,,,,,,,,,,,,,,,,,,,,,,,,,,,,,,,,,,,,,,,,,,,,,,,,,,,,,,,,,,,,,,,,,178.49650083412416,178.5124202920124,178.5124202920124,181.03167179203592,space,2.5171819168608636,None,,,,,,,,,,,,,,,,,,,,,,,,,,,,,,,,,,,,,,,,,,,,,,,,,,,,,,,,,,,,,,,,,,,,,,,,,,,,,,,,,,,,,898866,001,2023-11-15_14h59.40.013,main,2023.2.3,None,2023-11-15 14h59.46.682682 -0500,
"189, 77, 95","66, 138, 284","154, 166, 92","261, 67, 45",0,,,,,,,,,,,,,,,,,,,,,,,,,,,,,,,,,,,,,,,,,,,,,,,,,,,,,0,0,0,1,,,,,,,,,181.04987270897254,,,,,,,,,,,,,,,,,,,,,,,,,,,,,,,,,,,,,,,,,,,,,,,,,,,,,,,,,,,,,,,,,,,,,,,,,,,,,,,,,,,,,,181.03943429212086,181.04987270897254,181.04987270897254,181.99462316697463,left,0.939083042088896,None,,,,,,,,,,,,898866,001,2023-11-15_14h59.40.013,main,2023.2.3,None,2023-11-15 14h59.46.682682 -0500,
"221,63,111","22, 44, 509","162, 70, 118","219, 288, 39",0,,,,,,,,,,,,,,,,,,,,,,,,,,,,,,,,,,,,,,,,,,,,,,,,,,,,,0,1,1,0,,,,,,,,,182.0031569590792,,,,,,,,,,,,,,,,,,,,,,,,,,,,,,,,,,,,,,,,,,,,,,,,,,,,,,,,,,,,,,,,,,,,,,,,,,,,,,,,,,,,,,181.99521541711874,182.0031569590792,182.0031569590792,182.94824354210868,left,0.9430933331605047,None,,,,,,,,,,,,898866,001,2023-11-15_14h59.40.013,main,2023.2.3,None,2023-11-15 14h59.46.682682 -0500,
"42, 88, 20","180, 60, 50","463, 515, 119","-30, -61, -122",1,,,,,,,,,,,,,,,,,,,,,,,,,,,,,,,,,,,,,,,,,,,,,,,,,,,,,0,2,2,5,,,,,,,,,182.9606443750672,,,,,,,,,,,,,,,,,,,,,,,,,,,,,,,,,,,,,,,,,,,,,,,,,,,,,,,,,,,,,,,,,,,,,,,,,,,,,,,,,,,,,,182.94896341697313,182.9606443750672,182.9606443750672,184.78056466719136,right,1.8044553340878338,None,,,,,,,,,,,,898866,001,2023-11-15_14h59.40.013,main,2023.2.3,None,2023-11-15 14h59.46.682682 -0500,
"400, 76, 14","120, 270, 20","25, 87, 119","-16, -40, -27",1,,,,,,,,,,,,,,,,,,,,,,,,,,,,,,,,,,,,,,,,,,,,,,,,,,,,,0,3,3,3,,,,,,,,,184.79478150000796,,,,,,,,,,,,,,,,,,,,,,,,,,,,,,,,,,,,,,,,,,,,,,,,,,,,,,,,,,,,,,,,,,,,,,,,,,,,,,,,,,,,,,184.78104608412832,184.79478150000796,184.79478150000796,185.88258379208855,left,1.07610566704534,None,,,,,,,,,,,,898866,001,2023-11-15_14h59.40.013,main,2023.2.3,None,2023-11-15 14h59.46.682682 -0500,
"222, 50, 90","280, 20, 170","583, 261, 513","-160, -50, -266",1,,,,,,,,,,,,,,,,,,,,,,,,,,,,,,,,,,,,,,,,,,,,,,,,,,,,,0,4,4,2,,,,,,,,,185.89460654207505,,,,,,,,,,,,,,,,,,,,,,,,,,,,,,,,,,,,,,,,,,,,,,,,,,,,,,,,,,,,,,,,,,,,,,,,,,,,,,,,,,,,,,185.88293866696768,185.89460654207505,185.89460654207505,187.21425670897588,left,1.3139375001192093,None,,,,,,,,,,,,898866,001,2023-11-15_14h59.40.013,main,2023.2.3,None,2023-11-15 14h59.46.682682 -0500,
"287,53,49","71, 24, 603","86, 150, 140","248, 9, 139",0,,,,,,,,,,,,,,,,,,,,,,,,,,,,,,,,,,,,,,,,,,,,,,,,,,,,,0,5,5,4,,,,,,,,,187.22760537499562,,,,,,,,,,,,,,,,,,,,,,,,,,,,,,,,,,,,,,,,,,,,,,,,,,,,,,,,,,,,,,,,,,,,,,,,,,,,,,,,,,,,,,187.21488933404908,187.22760537499562,187.22760537499562,187.9651830419898,left,0.7221688749268651,None,,,,,,,,,,,,898866,001,2023-11-15_14h59.40.013,main,2023.2.3,None,2023-11-15 14h59.46.682682 -0500,
,,,,,,,,,,,,,,,,,,,,,,,,,,,,,,,,,,,,,,,,,,,,,,,,,,,,,,,,,,,,,,,,,,,,,,,187.96557850018144,187.97810650011525,187.97810650011525,188.86219879216515,space,0.8752208340447396,None,,,,,,,,,,,,,,,,,,,,,,,,,,,,,,,,,,,,,,,,,,,,,,,,,,,,,,,,,,,,,,,,,,,,,,,,,,,,,,,,,,,,,,,,,,,,,,,,898866,001,2023-11-15_14h59.40.013,main,2023.2.3,None,2023-11-15 14h59.46.682682 -0500,
8,640,3,-62,,,,,,,,,,,,,,,,,,,,,,,,,,,,,,,,,,,,,,,,,,,,,,,,,,,,,,,,,,0,0,0,1,,,,,188.88264129217714,,,,,,,,,,,,,,,,,,,,,,,,,,,,,,,,,,,,,,,,,,,,,,,,,,,,,,,,,,,,,,,,,,,,,,,,,,,,,,,,,,,,,,,,,,,,,188.87227483396418,188.88264129217714,190.86304437508807,,,,,,,,,898866,001,2023-11-15_14h59.40.013,main,2023.2.3,None,2023-11-15 14h59.46.682682 -0500,
98,170,77,-100,,,,,,,,,,,,,,,,,,,,,,,,,,,,,,,,,,,,,,,,,,,,,,,,,,,,,,,,,,0,1,1,3,,,,,190.87169758416712,,,,,,,,,,,,,,,,,,,,,,,,,,,,,,,,,,,,,,,,,,,,,,,,,,,,,,,,,,,,,,,,,,,,,,,,,,,,,,,,,,,,,,,,,,,,,190.86382066714577,190.87169758416712,192.86148758418858,192.8685325840488,,,,,,,,898866,001,2023-11-15_14h59.40.013,main,2023.2.3,None,2023-11-15 14h59.46.682682 -0500,
12,260,51,-111,,,,,,,,,,,,,,,,,,,,,,,,,,,,,,,,,,,,,,,,,,,,,,,,,,,,,,,,,,0,2,2,2,,,,,192.8685325840488,,,,,,,,,,,,,,,,,,,,,,,,,,,,,,,,,,,,,,,,,,,,,,,,,,,,,,,,,,,,,,,,,,,,,,,,,,,,,,,,,,,,,,,,,,,,,192.86182595905848,192.8685325840488,194.86152054206468,194.86989437509328,,,,,,,,898866,001,2023-11-15_14h59.40.013,main,2023.2.3,None,2023-11-15 14h59.46.682682 -0500,
40,30,91,-3,,,,,,,,,,,,,,,,,,,,,,,,,,,,,,,,,,,,,,,,,,,,,,,,,,,,,,,,,,0,3,3,4,,,,,194.86989437509328,,,,,,,,,,,,,,,,,,,,,,,,,,,,,,,,,,,,,,,,,,,,,,,,,,,,,,,,,,,,,,,,,,,,,,,,,,,,,,,,,,,,,,,,,,,,,194.86188112501986,194.86989437509328,196.86188483401202,196.8723197921645,,,,,,,,898866,001,2023-11-15_14h59.40.013,main,2023.2.3,None,2023-11-15 14h59.46.682682 -0500,
4,80,33,-4,,,,,,,,,,,,,,,,,,,,,,,,,,,,,,,,,,,,,,,,,,,,,,,,,,,,,,,,,,0,4,4,5,,,,,196.8723197921645,,,,,,,,,,,,,,,,,,,,,,,,,,,,,,,,,,,,,,,,,,,,,,,,,,,,,,,,,,,,,,,,,,,,,,,,,,,,,,,,,,,,,,,,,,,,,196.86280558397993,196.8723197921645,198.861534625059,198.86956104217097,,,,,,,,898866,001,2023-11-15_14h59.40.013,main,2023.2.3,None,2023-11-15 14h59.46.682682 -0500,
6,20,21,-28,,,,,,,,,,,,,,,,,,,,,,,,,,,,,,,,,,,,,,,,,,,,,,,,,,,,,,,,,,0,5,5,0,,,,,198.86956104217097,,,,,,,,,,,,,,,,,,,,,,,,,,,,,,,,,,,,,,,,,,,,,,,,,,,,,,,,,,,,,,,,,,,,,,,,,,,,,,,,,,,,,,,,,,,,,198.86194037506357,198.86956104217097,200.86293337517418,,,,,,,,,898866,001,2023-11-15_14h59.40.013,main,2023.2.3,None,2023-11-15 14h59.46.682682 -0500,
,,,,,,,,,,,,,,,,,,,,,,,,,,,,,,,,,,,,,,,,,,,,,,,,,,,,,,,,,,,,,,,,,,,,,,,,,,,,,,,,,,200.86302300007083,200.88002145919017,200.88002145919017,202.06169162504375,space,1.1708504580892622,None,,,,,,,,,,,,,,,,,,,,,,,,,,,,,,,,,,,,,,,,,,,,,,,,,,,,,,,,,,,,,,,,,,,,,,,,,,,,,,,,,,,,,898866,001,2023-11-15_14h59.40.013,main,2023.2.3,None,2023-11-15 14h59.46.682682 -0500,
"221,63,111","22, 44, 509","162, 70, 118","219, 288, 39",0,,,,,,,,,,,,,,,,,,,,,,,,,,,,,,,,,,,,,,,,,,,,,,,,,,,,,,,,,,,,,0,0,0,0,202.08157941699028,,,,,,,,,,,,,,,,,,,,,,,,,,,,,,,,,,,,,,,,,,,,,,,,,,,,,,,,,,,,,,,,,,,,,,,,,,,,,,,,,,,,,,,,,,,,,,,,,202.06947004212998,202.08157941699028,202.08157941699028,202.89464604202658,left,0.8118887499440461,None,898866,001,2023-11-15_14h59.40.013,main,2023.2.3,None,2023-11-15 14h59.46.682682 -0500,
"400, 76, 14","120, 270, 20","25, 87, 119","-16, -40, -27",1,,,,,,,,,,,,,,,,,,,,,,,,,,,,,,,,,,,,,,,,,,,,,,,,,,,,,,,,,,,,,0,1,1,3,202.9039734590333,,,,,,,,,,,,,,,,,,,,,,,,,,,,,,,,,,,,,,,,,,,,,,,,,,,,,,,,,,,,,,,,,,,,,,,,,,,,,,,,,,,,,,,,,,,,,,,,,202.89537491719238,202.9039734590333,202.9039734590333,203.71664050011896,right,0.8077960840892047,None,898866,001,2023-11-15_14h59.40.013,main,2023.2.3,None,2023-11-15 14h59.46.682682 -0500,
"287,53,49","71, 24, 603","86, 150, 140","248, 9, 139",0,,,,,,,,,,,,,,,,,,,,,,,,,,,,,,,,,,,,,,,,,,,,,,,,,,,,,,,,,,,,,0,2,2,4,203.74481150018983,,,,,,,,,,,,,,,,,,,,,,,,,,,,,,,,,,,,,,,,,,,,,,,,,,,,,,,,,,,,,,,,,,,,,,,,,,,,,,,,,,,,,,,,,,,,,,,,,203.71736000012606,203.74481150018983,203.74481150018983,204.57924287510104,left,0.8305353748146445,None,898866,001,2023-11-15_14h59.40.013,main,2023.2.3,None,2023-11-15 14h59.46.682682 -0500,
"222, 50, 90","280, 20, 170","583, 261, 513","-160, -50, -266",1,,,,,,,,,,,,,,,,,,,,,,,,,,,,,,,,,,,,,,,,,,,,,,,,,,,,,,,,,,,,,0,3,3,2,204.5903542090673,,,,,,,,,,,,,,,,,,,,,,,,,,,,,,,,,,,,,,,,,,,,,,,,,,,,,,,,,,,,,,,,,,,,,,,,,,,,,,,,,,,,,,,,,,,,,,,,,204.58058091718704,204.5903542090673,204.5903542090673,205.01158041716553,right,0.41894079209305346,None,898866,001,2023-11-15_14h59.40.013,main,2023.2.3,None,2023-11-15 14h59.46.682682 -0500,
"42, 88, 20","180, 60, 50","463, 515, 119","-30, -61, -122",1,,,,,,,,,,,,,,,,,,,,,,,,,,,,,,,,,,,,,,,,,,,,,,,,,,,,,,,,,,,,,0,4,4,5,205.02343449997716,,,,,,,,,,,,,,,,,,,,,,,,,,,,,,,,,,,,,,,,,,,,,,,,,,,,,,,,,,,,,,,,,,,,,,,,,,,,,,,,,,,,,,,,,,,,,,,,,205.012312249979,205.02343449997716,205.02343449997716,205.59496533405036,right,0.5636242921464145,None,898866,001,2023-11-15_14h59.40.013,main,2023.2.3,None,2023-11-15 14h59.46.682682 -0500,
"189, 77, 95","66, 138, 284","154, 166, 92","261, 67, 45",0,,,,,,,,,,,,,,,,,,,,,,,,,,,,,,,,,,,,,,,,,,,,,,,,,,,,,,,,,,,,,0,5,5,1,205.60507291718386,,,,,,,,,,,,,,,,,,,,,,,,,,,,,,,,,,,,,,,,,,,,,,,,,,,,,,,,,,,,,,,,,,,,,,,,,,,,,,,,,,,,,,,,,,,,,,,,,205.59555837512016,205.60507291718386,205.60507291718386,205.86166683398187,left,0.25259404187090695,None,898866,001,2023-11-15_14h59.40.013,main,2023.2.3,None,2023-11-15 14h59.46.682682 -0500,
